Wavenumber,Intensity
650.4205,0.317298
651.3523,0.304226
652.2841,0.304411
653.2160,0.311805
654.1478,0.308910
655.0796,0.295060
656.0115,0.288752
656.9433,0.287044
657.8751,0.280630
658.8070,0.283224
659.7388,0.288358
660.6706,0.290177
661.6025,0.289698
662.5343,0.288029
663.4661,0.285242
664.3980,0.281427
665.3298,0.279488
666.2616,0.281374
667.1935,0.279509
668.1253,0.277822
669.0571,0.287352
669.9890,0.287907
670.9208,0.283561
671.8526,0.283632
672.7845,0.281214
673.7163,0.275481
674.6481,0.278053
675.5800,0.284436
676.5118,0.280177
677.4437,0.274544
678.3755,0.271377
679.3073,0.269947
680.2392,0.271861
681.1710,0.269881
682.1028,0.266523
683.0347,0.270381
683.9665,0.269962
684.8983,0.264334
685.8302,0.259292
686.7620,0.259734
687.6938,0.264309
688.6257,0.265299
689.5575,0.264925
690.4893,0.264132
691.4212,0.260557
692.3530,0.257868
693.2848,0.255352
694.2167,0.257341
695.1485,0.259644
696.0803,0.257622
697.0122,0.253704
697.9440,0.252215
698.8758,0.252732
699.8077,0.248504
700.7395,0.247328
701.6713,0.249043
702.6032,0.246973
703.5350,0.246582
704.4669,0.247406
705.3987,0.244510
706.3305,0.240798
707.2624,0.240050
708.1942,0.240520
709.1260,0.243207
710.0579,0.241717
710.9897,0.238086
711.9215,0.236996
712.8534,0.238017
713.7852,0.236470
714.7170,0.234276
715.6489,0.233614
716.5807,0.234546
717.5125,0.233980
718.4444,0.233770
719.3762,0.234182
720.3080,0.232774
721.2399,0.227159
722.1717,0.222447
723.1035,0.222688
724.0354,0.224426
724.9672,0.224991
725.8990,0.224268
726.8309,0.221674
727.7627,0.220381
728.6945,0.221615
729.6264,0.219634
730.5582,0.216331
731.4901,0.215997
732.4219,0.215290
733.3537,0.215052
734.2856,0.216016
735.2174,0.215073
736.1492,0.211504
737.0811,0.209379
738.0129,0.208109
738.9447,0.206646
739.8766,0.206461
740.8084,0.206456
741.7402,0.204462
742.6721,0.203127
743.6039,0.202489
744.5357,0.202917
745.4676,0.203474
746.3994,0.201146
747.3312,0.199379
748.2631,0.200113
749.1949,0.199175
750.1267,0.196105
751.0586,0.192864
751.9904,0.192428
752.9222,0.192330
753.8541,0.190812
754.7859,0.190984
755.7177,0.190283
756.6496,0.187389
757.5814,0.186796
758.5132,0.186936
759.4451,0.188287
760.3769,0.187050
761.3088,0.184699
762.2406,0.183465
763.1724,0.181353
764.1043,0.179566
765.0361,0.180132
765.9679,0.181343
766.8998,0.181180
767.8316,0.178694
768.7634,0.175720
769.6953,0.174257
770.6271,0.173495
771.5589,0.172860
772.4908,0.172643
773.4226,0.171674
774.3544,0.170550
775.2863,0.169525
776.2181,0.169167
777.1499,0.168472
778.0818,0.166531
779.0136,0.165021
779.9454,0.165499
780.8773,0.164282
781.8091,0.162141
782.7409,0.161646
783.6728,0.161464
784.6046,0.159926
785.5364,0.159582
786.4683,0.159411
787.4001,0.158454
788.3320,0.156716
789.2638,0.155107
790.1956,0.153359
791.1275,0.152141
792.0593,0.151601
792.9911,0.151917
793.9230,0.152024
794.8548,0.150690
795.7866,0.150419
796.7185,0.150820
797.6503,0.149533
798.5821,0.148623
799.5140,0.148908
800.4458,0.149414
801.3776,0.148409
802.3095,0.146623
803.2413,0.145967
804.1731,0.146035
805.1050,0.145236
806.0368,0.144318
806.9686,0.143339
807.9005,0.141847
808.8323,0.138960
809.7641,0.136177
810.6960,0.135697
811.6278,0.134962
812.5596,0.133041
813.4915,0.131243
814.4233,0.129895
815.3552,0.128534
816.2870,0.127254
817.2188,0.127044
818.1507,0.125618
819.0825,0.123647
820.0143,0.122471
820.9462,0.122171
821.8780,0.122178
822.8098,0.121594
823.7417,0.120518
824.6735,0.119133
825.6053,0.117626
826.5372,0.116460
827.4690,0.115703
828.4008,0.114529
829.3327,0.113771
830.2645,0.113417
831.1963,0.112352
832.1282,0.111525
833.0600,0.110606
833.9918,0.109887
834.9237,0.109714
835.8555,0.109461
836.7873,0.108757
837.7192,0.107873
838.6510,0.107021
839.5828,0.105770
840.5147,0.104534
841.4465,0.104416
842.3784,0.103642
843.3102,0.103120
844.2420,0.103553
845.1739,0.103048
846.1057,0.101128
847.0375,0.100101
847.9694,0.100444
848.9012,0.100471
849.8330,0.100104
850.7649,0.099434
851.6967,0.098853
852.6285,0.098276
853.5604,0.097633
854.4922,0.097782
855.4240,0.097052
856.3559,0.096894
857.2877,0.097744
858.2195,0.097870
859.1514,0.097411
860.0832,0.097243
861.0150,0.098227
861.9469,0.099447
862.8787,0.099488
863.8105,0.100055
864.7424,0.101968
865.6742,0.104212
866.6060,0.106675
867.5379,0.109708
868.4697,0.113504
869.4016,0.117665
870.3334,0.123703
871.2652,0.131023
872.1971,0.138923
873.1289,0.148937
874.0607,0.159940
874.9926,0.170839
875.9244,0.181458
876.8562,0.190555
877.7881,0.196824
878.7199,0.198530
879.6517,0.196214
880.5836,0.190252
881.5154,0.180310
882.4472,0.168456
883.3791,0.156097
884.3109,0.144131
885.2427,0.132491
886.1746,0.122134
887.1064,0.112860
888.0382,0.104885
888.9701,0.098238
889.9019,0.092561
890.8337,0.087458
891.7656,0.082820
892.6974,0.079649
893.6292,0.077300
894.5611,0.074862
895.4929,0.072634
896.4247,0.070844
897.3566,0.069587
898.2884,0.068551
899.2203,0.066774
900.1521,0.065120
901.0839,0.064507
902.0158,0.063797
902.9476,0.063040
903.8794,0.062871
904.8113,0.062399
905.7431,0.061538
906.6749,0.060606
907.6068,0.059958
908.5386,0.059474
909.4704,0.059019
910.4023,0.058389
911.3341,0.057791
912.2659,0.057361
913.1978,0.056898
914.1296,0.056312
915.0614,0.055686
915.9933,0.055261
916.9251,0.055133
917.8569,0.054930
918.7888,0.054755
919.7206,0.054470
920.6524,0.054082
921.5843,0.053573
922.5161,0.052999
923.4479,0.053161
924.3798,0.052900
925.3116,0.052179
926.2435,0.051884
927.1753,0.051659
928.1071,0.051197
929.0390,0.050806
929.9708,0.050469
930.9026,0.050348
931.8345,0.050312
932.7663,0.050300
933.6981,0.050084
934.6300,0.049758
935.5618,0.049265
936.4936,0.048480
937.4255,0.048379
938.3573,0.048344
939.2891,0.048092
940.2210,0.047885
941.1528,0.047904
942.0846,0.047968
943.0165,0.047886
943.9483,0.047759
944.8801,0.047809
945.8120,0.047704
946.7438,0.047407
947.6756,0.047256
948.6075,0.047246
949.5393,0.047228
950.4711,0.047010
951.4030,0.046775
952.3348,0.046821
953.2667,0.046709
954.1985,0.046312
955.1303,0.046180
956.0622,0.046205
956.9940,0.046320
957.9258,0.046186
958.8577,0.045735
959.7895,0.045832
960.7213,0.046354
961.6532,0.046035
962.5850,0.045424
963.5168,0.045435
964.4487,0.045793
965.3805,0.045666
966.3123,0.045821
967.2442,0.046194
968.1760,0.046072
969.1078,0.045856
970.0397,0.045852
970.9715,0.045821
971.9033,0.045555
972.8352,0.045519
973.7670,0.045653
974.6988,0.045755
975.6307,0.045875
976.5625,0.046140
977.4943,0.046499
978.4262,0.046508
979.3580,0.046595
980.2899,0.046930
981.2217,0.046938
982.1535,0.046746
983.0854,0.046942
984.0172,0.047215
984.9490,0.047345
985.8809,0.047567
986.8127,0.047811
987.7445,0.047824
988.6764,0.047863
989.6082,0.048077
990.5400,0.048639
991.4719,0.049143
992.4037,0.049232
993.3355,0.049546
994.2674,0.050235
995.1992,0.050578
996.1310,0.050714
997.0629,0.051122
997.9947,0.051404
998.9265,0.051749
999.8584,0.052395
1000.7902,0.053005
1001.7220,0.053725
1002.6539,0.054362
1003.5857,0.054980
1004.5175,0.055622
1005.4494,0.056380
1006.3812,0.057282
1007.3131,0.057880
1008.2449,0.058639
1009.1767,0.059885
1010.1086,0.061112
1011.0404,0.062404
1011.9722,0.063927
1012.9041,0.065388
1013.8359,0.066828
1014.7677,0.068372
1015.6996,0.070019
1016.6314,0.072175
1017.5632,0.074387
1018.4951,0.076811
1019.4269,0.079504
1020.3587,0.082554
1021.2906,0.086105
1022.2224,0.090038
1023.1542,0.094014
1024.0861,0.098271
1025.0179,0.103446
1025.9497,0.109149
1026.8816,0.115435
1027.8134,0.122458
1028.7452,0.129946
1029.6771,0.138432
1030.6089,0.148392
1031.5407,0.159441
1032.4726,0.172006
1033.4044,0.186320
1034.3362,0.202580
1035.2681,0.220871
1036.1999,0.240806
1037.1318,0.262349
1038.0636,0.285096
1038.9954,0.308731
1039.9273,0.331316
1040.8591,0.351918
1041.7909,0.369830
1042.7228,0.382815
1043.6546,0.389587
1044.5864,0.389766
1045.5183,0.383138
1046.4501,0.371268
1047.3819,0.355369
1048.3138,0.336110
1049.2456,0.314487
1050.1774,0.291409
1051.1093,0.267851
1052.0411,0.244368
1052.9729,0.221620
1053.9048,0.200352
1054.8366,0.180806
1055.7684,0.163046
1056.7003,0.147588
1057.6321,0.134260
1058.5639,0.122893
1059.4958,0.113748
1060.4276,0.106713
1061.3594,0.101420
1062.2913,0.097137
1063.2231,0.093832
1064.1550,0.092008
1065.0868,0.091098
1066.0186,0.090733
1066.9505,0.091163
1067.8823,0.092060
1068.8141,0.093156
1069.7460,0.094704
1070.6778,0.097075
1071.6096,0.099960
1072.5415,0.103191
1073.4733,0.106700
1074.4051,0.110720
1075.3370,0.115011
1076.2688,0.119743
1077.2006,0.124631
1078.1325,0.129818
1079.0643,0.135033
1079.9961,0.140040
1080.9280,0.145081
1081.8598,0.150173
1082.7916,0.154505
1083.7235,0.157657
1084.6553,0.160218
1085.5871,0.161906
1086.5190,0.161723
1087.4508,0.160132
1088.3826,0.157652
1089.3145,0.153979
1090.2463,0.148782
1091.1782,0.142340
1092.1100,0.135294
1093.0418,0.127618
1093.9737,0.119784
1094.9055,0.112004
1095.8373,0.104342
1096.7692,0.097142
1097.7010,0.090381
1098.6328,0.083979
1099.5647,0.078289
1100.4965,0.073451
1101.4283,0.069216
1102.3602,0.065294
1103.2920,0.061987
1104.2238,0.059310
1105.1557,0.056764
1106.0875,0.054494
1107.0193,0.052659
1107.9512,0.051168
1108.8830,0.050078
1109.8148,0.048721
1110.7467,0.047540
1111.6785,0.046941
1112.6103,0.046464
1113.5422,0.045681
1114.4740,0.044861
1115.4058,0.044323
1116.3377,0.043920
1117.2695,0.043654
1118.2014,0.043303
1119.1332,0.043062
1120.0650,0.042997
1120.9969,0.042691
1121.9287,0.042456
1122.8605,0.042373
1123.7924,0.042138
1124.7242,0.042051
1125.6560,0.041768
1126.5879,0.041473
1127.5197,0.041391
1128.4515,0.041287
1129.3834,0.041017
1130.3152,0.040732
1131.2470,0.040637
1132.1789,0.040523
1133.1107,0.040155
1134.0425,0.039895
1134.9744,0.039646
1135.9062,0.039437
1136.8380,0.039160
1137.7699,0.038720
1138.7017,0.038598
1139.6335,0.038416
1140.5654,0.038129
1141.4972,0.038010
1142.4290,0.037831
1143.3609,0.037515
1144.2927,0.037403
1145.2246,0.037460
1146.1564,0.037394
1147.0882,0.037315
1148.0201,0.037356
1148.9519,0.037444
1149.8837,0.037349
1150.8156,0.037267
1151.7474,0.037120
1152.6792,0.036877
1153.6111,0.036937
1154.5429,0.036687
1155.4747,0.036615
1156.4066,0.036614
1157.3384,0.036265
1158.2702,0.036015
1159.2021,0.035850
1160.1339,0.035395
1161.0657,0.035071
1161.9976,0.034917
1162.9294,0.034582
1163.8612,0.034029
1164.7931,0.033792
1165.7249,0.033646
1166.6567,0.033304
1167.5886,0.033043
1168.5204,0.032834
1169.4522,0.032687
1170.3841,0.032552
1171.3159,0.032552
1172.2477,0.032172
1173.1796,0.031812
1174.1114,0.032028
1175.0433,0.032201
1175.9751,0.032193
1176.9069,0.032037
1177.8388,0.031870
1178.7706,0.031940
1179.7024,0.032036
1180.6343,0.031838
1181.5661,0.031695
1182.4979,0.031526
1183.4298,0.031573
1184.3616,0.031773
1185.2934,0.031802
1186.2253,0.031720
1187.1571,0.031724
1188.0889,0.031711
1189.0208,0.031786
1189.9526,0.031779
1190.8844,0.031723
1191.8163,0.031886
1192.7481,0.031955
1193.6799,0.031777
1194.6118,0.031761
1195.5436,0.031958
1196.4754,0.032259
1197.4073,0.032204
1198.3391,0.031873
1199.2709,0.031799
1200.2028,0.031799
1201.1346,0.031899
1202.0665,0.032032
1202.9983,0.032002
1203.9301,0.032107
1204.8620,0.032072
1205.7938,0.032098
1206.7256,0.032168
1207.6575,0.032327
1208.5893,0.032390
1209.5211,0.032389
1210.4530,0.032135
1211.3848,0.032047
1212.3166,0.032323
1213.2485,0.032753
1214.1803,0.032837
1215.1121,0.032833
1216.0440,0.032879
1216.9758,0.032890
1217.9076,0.032731
1218.8395,0.032721
1219.7713,0.033209
1220.7031,0.033655
1221.6350,0.033409
1222.5668,0.033231
1223.4986,0.033486
1224.4305,0.033578
1225.3623,0.033740
1226.2941,0.033661
1227.2260,0.033524
1228.1578,0.033773
1229.0897,0.033957
1230.0215,0.034044
1230.9533,0.034138
1231.8852,0.034329
1232.8170,0.034540
1233.7488,0.034603
1234.6807,0.034613
1235.6125,0.034858
1236.5443,0.034904
1237.4762,0.035126
1238.4080,0.035663
1239.3398,0.035786
1240.2717,0.035559
1241.2035,0.035553
1242.1353,0.035870
1243.0672,0.036149
1243.9990,0.036607
1244.9308,0.036945
1245.8627,0.036936
1246.7945,0.037145
1247.7263,0.037571
1248.6582,0.037726
1249.5900,0.037930
1250.5218,0.038349
1251.4537,0.038752
1252.3855,0.039172
1253.3173,0.039607
1254.2492,0.040065
1255.1810,0.040300
1256.1129,0.040766
1257.0447,0.041442
1257.9765,0.041968
1258.9084,0.042474
1259.8402,0.043158
1260.7720,0.044016
1261.7039,0.044715
1262.6357,0.045396
1263.5675,0.046238
1264.4994,0.047298
1265.4312,0.048392
1266.3630,0.049528
1267.2949,0.050464
1268.2267,0.051141
1269.1585,0.051933
1270.0904,0.053010
1271.0222,0.053742
1271.9540,0.054365
1272.8859,0.054997
1273.8177,0.055235
1274.7495,0.055178
1275.6814,0.054879
1276.6132,0.054418
1277.5450,0.054148
1278.4769,0.053611
1279.4087,0.052788
1280.3405,0.051940
1281.2724,0.051022
1282.2042,0.050322
1283.1361,0.049776
1284.0679,0.049066
1284.9997,0.048690
1285.9316,0.048636
1286.8634,0.048362
1287.7952,0.048268
1288.7271,0.048436
1289.6589,0.048557
1290.5907,0.048578
1291.5226,0.048427
1292.4544,0.048623
1293.3862,0.048791
1294.3181,0.048725
1295.2499,0.048944
1296.1817,0.049642
1297.1136,0.050281
1298.0454,0.050574
1298.9772,0.051071
1299.9091,0.051649
1300.8409,0.051907
1301.7727,0.052169
1302.7046,0.052597
1303.6364,0.053126
1304.5682,0.053809
1305.5001,0.054356
1306.4319,0.054639
1307.3637,0.055017
1308.2956,0.055683
1309.2274,0.056219
1310.1592,0.056715
1311.0911,0.056886
1312.0229,0.057108
1312.9548,0.057575
1313.8866,0.058144
1314.8184,0.058443
1315.7503,0.058674
1316.6821,0.059046
1317.6139,0.059331
1318.5458,0.059673
1319.4776,0.060075
1320.4094,0.060458
1321.3413,0.060607
1322.2731,0.060307
1323.2049,0.060352
1324.1368,0.060624
1325.0686,0.060421
1326.0004,0.060272
1326.9323,0.060211
1327.8641,0.060257
1328.7959,0.060352
1329.7278,0.060304
1330.6596,0.060080
1331.5914,0.059788
1332.5233,0.059545
1333.4551,0.059000
1334.3869,0.058328
1335.3188,0.057658
1336.2506,0.057120
1337.1824,0.057019
1338.1143,0.056901
1339.0461,0.056673
1339.9780,0.056572
1340.9098,0.056747
1341.8416,0.056322
1342.7735,0.055169
1343.7053,0.054140
1344.6371,0.053682
1345.5690,0.053190
1346.5008,0.052675
1347.4326,0.052386
1348.3645,0.052058
1349.2963,0.051456
1350.2281,0.051033
1351.1600,0.050979
1352.0918,0.050695
1353.0236,0.050537
1353.9555,0.050431
1354.8873,0.050340
1355.8191,0.050474
1356.7510,0.050372
1357.6828,0.050059
1358.6146,0.049909
1359.5465,0.049815
1360.4783,0.049714
1361.4101,0.049935
1362.3420,0.050698
1363.2738,0.051619
1364.2056,0.052871
1365.1375,0.053232
1366.0693,0.053001
1367.0012,0.053468
1367.9330,0.054898
1368.8648,0.056899
1369.7967,0.058824
1370.7285,0.060482
1371.6603,0.061692
1372.5922,0.063182
1373.5240,0.065293
1374.4558,0.068457
1375.3877,0.071768
1376.3195,0.073472
1377.2513,0.074083
1378.1832,0.074805
1379.1150,0.076202
1380.0468,0.076987
1380.9787,0.077539
1381.9105,0.078009
1382.8423,0.077906
1383.7742,0.077616
1384.7060,0.077138
1385.6378,0.076499
1386.5697,0.075771
1387.5015,0.075337
1388.4333,0.075733
1389.3652,0.074981
1390.2970,0.073006
1391.2288,0.071525
1392.1607,0.070181
1393.0925,0.069194
1394.0244,0.068626
1394.9562,0.068887
1395.8880,0.069604
1396.8199,0.069788
1397.7517,0.069565
1398.6835,0.069575
1399.6154,0.070479
1400.5472,0.071148
1401.4790,0.070564
1402.4109,0.069764
1403.3427,0.069541
1404.2745,0.069822
1405.2064,0.070860
1406.1382,0.072293
1407.0700,0.072241
1408.0019,0.071531
1408.9337,0.071578
1409.8655,0.071808
1410.7974,0.072337
1411.7292,0.072565
1412.6610,0.072547
1413.5929,0.072115
1414.5247,0.071444
1415.4565,0.071017
1416.3884,0.070438
1417.3202,0.070197
1418.2520,0.070827
1419.1839,0.071516
1420.1157,0.072894
1421.0476,0.073168
1421.9794,0.071002
1422.9112,0.069692
1423.8431,0.069525
1424.7749,0.070039
1425.7067,0.069592
1426.6386,0.068108
1427.5704,0.066949
1428.5022,0.066483
1429.4341,0.066023
1430.3659,0.065633
1431.2977,0.065658
1432.2296,0.064752
1433.1614,0.063324
1434.0932,0.062125
1435.0251,0.061141
1435.9569,0.060462
1436.8887,0.061485
1437.8206,0.063538
1438.7524,0.062715
1439.6842,0.061224
1440.6161,0.060572
1441.5479,0.060516
1442.4797,0.060670
1443.4116,0.060809
1444.3434,0.061279
1445.2752,0.062119
1446.2071,0.062907
1447.1389,0.063590
1448.0707,0.064751
1449.0026,0.067099
1449.9344,0.068006
1450.8663,0.066906
1451.7981,0.066300
1452.7299,0.066134
1453.6618,0.065858
1454.5936,0.064986
1455.5254,0.063959
1456.4573,0.063313
1457.3891,0.063523
1458.3209,0.063574
1459.2528,0.062172
1460.1846,0.059309
1461.1164,0.055919
1462.0483,0.053215
1462.9801,0.051355
1463.9119,0.049709
1464.8438,0.048079
1465.7756,0.047440
1466.7074,0.046664
1467.6393,0.044741
1468.5711,0.043226
1469.5029,0.042299
1470.4348,0.041632
1471.3666,0.040785
1472.2984,0.040307
1473.2303,0.041212
1474.1621,0.042092
1475.0939,0.041425
1476.0258,0.040480
1476.9576,0.040935
1477.8895,0.041950
1478.8213,0.041509
1479.7531,0.040968
1480.6850,0.040856
1481.6168,0.040891
1482.5486,0.041034
1483.4805,0.040926
1484.4123,0.040557
1485.3441,0.040171
1486.2760,0.039757
1487.2078,0.039143
1488.1396,0.038637
1489.0715,0.037983
1490.0033,0.037602
1490.9351,0.037312
1491.8670,0.036267
1492.7988,0.035083
1493.7306,0.033979
1494.6625,0.032981
1495.5943,0.032080
1496.5261,0.032047
1497.4580,0.032872
1498.3898,0.032610
1499.3216,0.032195
1500.2535,0.031913
1501.1853,0.031163
1502.1171,0.030437
1503.0490,0.029735
1503.9808,0.029142
1504.9127,0.028349
1505.8445,0.027920
1506.7763,0.028851
1507.7082,0.030951
1508.6400,0.030917
1509.5718,0.030298
1510.5037,0.029537
1511.4355,0.029522
1512.3673,0.029335
1513.2992,0.028584
1514.2310,0.028230
1515.1628,0.028214
1516.0947,0.028391
1517.0265,0.028547
1517.9583,0.028898
1518.8902,0.028592
1519.8220,0.027429
1520.7538,0.026793
1521.6857,0.027575
1522.6175,0.028604
1523.5493,0.028327
1524.4812,0.028169
1525.4130,0.027664
1526.3448,0.027568
1527.2767,0.027852
1528.2085,0.027834
1529.1403,0.027695
1530.0722,0.027560
1531.0040,0.027216
1531.9359,0.026830
1532.8677,0.026819
1533.7995,0.027255
1534.7314,0.028182
1535.6632,0.027925
1536.5950,0.026823
1537.5269,0.026246
1538.4587,0.026222
1539.3905,0.026436
1540.3224,0.027454
1541.2542,0.028274
1542.1860,0.027555
1543.1179,0.027955
1544.0497,0.028185
1544.9815,0.027896
1545.9134,0.028098
1546.8452,0.028378
1547.7770,0.027879
1548.7089,0.027121
1549.6407,0.026706
1550.5725,0.027107
1551.5044,0.027718
1552.4362,0.027554
1553.3680,0.027091
1554.2999,0.027186
1555.2317,0.027879
1556.1635,0.027626
1557.0954,0.026593
1558.0272,0.026348
1558.9591,0.027285
1559.8909,0.028848
1560.8227,0.030624
1561.7546,0.031081
1562.6864,0.029796
1563.6182,0.028913
1564.5501,0.028720
1565.4819,0.028892
1566.4137,0.029196
1567.3456,0.029211
1568.2774,0.029148
1569.2092,0.029247
1570.1411,0.029791
1571.0729,0.030937
1572.0047,0.031000
1572.9366,0.030486
1573.8684,0.030262
1574.8002,0.030311
1575.7321,0.030536
1576.6639,0.031760
1577.5957,0.033470
1578.5276,0.032723
1579.4594,0.031912
1580.3912,0.032310
1581.3231,0.032881
1582.2549,0.033264
1583.1867,0.033576
1584.1186,0.033649
1585.0504,0.034233
1585.9822,0.034961
1586.9141,0.034992
1587.8459,0.035016
1588.7778,0.035419
1589.7096,0.035705
1590.6414,0.036353
1591.5733,0.037010
1592.5051,0.037477
1593.4369,0.038373
1594.3688,0.039060
1595.3006,0.039485
1596.2324,0.039747
1597.1643,0.040348
1598.0961,0.041308
1599.0279,0.042092
1599.9598,0.042527
1600.8916,0.042968
1601.8234,0.043646
1602.7553,0.044492
1603.6871,0.045683
1604.6189,0.046892
1605.5508,0.047552
1606.4826,0.047948
1607.4144,0.048854
1608.3463,0.050709
1609.2781,0.052443
1610.2099,0.053549
1611.1418,0.054591
1612.0736,0.054862
1613.0054,0.055230
1613.9373,0.056114
1614.8691,0.057064
1615.8010,0.058905
1616.7328,0.061732
1617.6646,0.066237
1618.5965,0.068520
1619.5283,0.066937
1620.4601,0.066412
1621.3920,0.067792
1622.3238,0.069715
1623.2556,0.071664
1624.1875,0.074550
1625.1193,0.077794
1626.0511,0.079019
1626.9830,0.079274
1627.9148,0.080941
1628.8466,0.083963
1629.7785,0.085276
1630.7103,0.084686
1631.6421,0.084441
1632.5740,0.084942
1633.5058,0.085320
1634.4376,0.086042
1635.3695,0.088871
1636.3013,0.095456
1637.2331,0.099619
1638.1650,0.097485
1639.0968,0.095999
1640.0286,0.094785
1640.9605,0.094267
1641.8923,0.094102
1642.8242,0.092948
1643.7560,0.092477
1644.6878,0.092371
1645.6197,0.092124
1646.5515,0.093306
1647.4833,0.096139
1648.4152,0.097574
1649.3470,0.095655
1650.2788,0.091928
1651.2107,0.089694
1652.1425,0.088859
1653.0743,0.089944
1654.0062,0.096048
1654.9380,0.099963
1655.8698,0.096045
1656.8017,0.091176
1657.7335,0.088170
1658.6653,0.086395
1659.5972,0.084609
1660.5290,0.083778
1661.4608,0.083036
1662.3927,0.081653
1663.3245,0.081313
1664.2563,0.081130
1665.1882,0.079002
1666.1200,0.076913
1667.0518,0.075660
1667.9837,0.074539
1668.9155,0.073304
1669.8474,0.073041
1670.7792,0.073545
1671.7110,0.072223
1672.6429,0.070188
1673.5747,0.068564
1674.5065,0.067053
1675.4384,0.065782
1676.3702,0.065228
1677.3020,0.064300
1678.2339,0.062056
1679.1657,0.059686
1680.0975,0.057935
1681.0294,0.056812
1681.9612,0.055608
1682.8930,0.053845
1683.8249,0.052470
1684.7567,0.053103
1685.6885,0.054792
1686.6204,0.053248
1687.5522,0.050256
1688.4840,0.048385
1689.4159,0.047536
1690.3477,0.046398
1691.2795,0.044929
1692.2114,0.043641
1693.1432,0.042573
1694.0750,0.041329
1695.0069,0.040032
1695.9387,0.039395
1696.8706,0.039024
1697.8024,0.038265
1698.7342,0.037449
1699.6661,0.036733
1700.5979,0.036310
1701.5297,0.035796
1702.4616,0.034368
1703.3934,0.032802
1704.3252,0.031646
1705.2571,0.031707
1706.1889,0.031982
1707.1207,0.031131
1708.0526,0.029995
1708.9844,0.028850
1709.9162,0.028170
1710.8481,0.027794
1711.7799,0.026833
1712.7117,0.026037
1713.6436,0.025732
1714.5754,0.025109
1715.5072,0.024746
1716.4391,0.024072
1717.3709,0.022683
1718.3027,0.022549
1719.2346,0.022776
1720.1664,0.022609
1721.0982,0.022302
1722.0301,0.021534
1722.9619,0.020772
1723.8937,0.020493
1724.8256,0.020403
1725.7574,0.020100
1726.6893,0.019663
1727.6211,0.019117
1728.5529,0.018551
1729.4848,0.017990
1730.4166,0.017278
1731.3484,0.017117
1732.2803,0.017473
1733.2121,0.017258
1734.1439,0.017147
1735.0758,0.017698
1736.0076,0.017504
1736.9394,0.016500
1737.8713,0.015844
1738.8031,0.015804
1739.7349,0.015828
1740.6668,0.015640
1741.5986,0.015703
1742.5304,0.015342
1743.4623,0.014583
1744.3941,0.014071
1745.3259,0.014377
1746.2578,0.014668
1747.1896,0.014329
1748.1214,0.013876
1749.0533,0.013408
1749.9851,0.013134
1750.9169,0.013254
1751.8488,0.013601
1752.7806,0.014015
1753.7125,0.013645
1754.6443,0.013170
1755.5761,0.013182
1756.5080,0.012804
1757.4398,0.012409
1758.3716,0.012630
1759.3035,0.012646
1760.2353,0.012239
1761.1671,0.011815
1762.0990,0.011742
1763.0308,0.011837
1763.9626,0.011751
1764.8945,0.011685
1765.8263,0.011570
1766.7581,0.011378
1767.6900,0.010878
1768.6218,0.010306
1769.5536,0.010596
1770.4855,0.010495
1771.4173,0.009639
1772.3491,0.009446
1773.2810,0.009903
1774.2128,0.010364
1775.1446,0.010456
1776.0765,0.010258
1777.0083,0.009830
1777.9401,0.009968
1778.8720,0.010175
1779.8038,0.009751
1780.7357,0.009410
1781.6675,0.009400
1782.5993,0.009764
1783.5312,0.009499
1784.4630,0.008962
1785.3948,0.008890
1786.3267,0.009110
1787.2585,0.009346
1788.1903,0.008993
1789.1222,0.008309
1790.0540,0.008188
1790.9858,0.008446
1791.9177,0.008788
1792.8495,0.009124
1793.7813,0.008681
1794.7132,0.008166
1795.6450,0.008039
1796.5768,0.007987
1797.5087,0.007847
1798.4405,0.008145
1799.3723,0.008359
1800.3042,0.008080
1801.2360,0.008202
1802.1678,0.008329
1803.0997,0.007766
1804.0315,0.007021
1804.9633,0.007296
1805.8952,0.007697
1806.8270,0.007352
1807.7589,0.007399
1808.6907,0.007988
1809.6225,0.007977
1810.5544,0.007501
1811.4862,0.007512
1812.4180,0.007549
1813.3499,0.007252
1814.2817,0.007247
1815.2135,0.007566
1816.1454,0.007655
1817.0772,0.007018
1818.0090,0.006555
1818.9409,0.006583
1819.8727,0.006711
1820.8045,0.007094
1821.7364,0.007119
1822.6682,0.006398
1823.6000,0.006193
1824.5319,0.006416
1825.4637,0.006503
1826.3955,0.006470
1827.3274,0.006284
1828.2592,0.005806
1829.1910,0.005242
1830.1229,0.005457
1831.0547,0.006061
1831.9865,0.006456
1832.9184,0.006596
1833.8502,0.006253
1834.7821,0.006126
1835.7139,0.005703
1836.6457,0.004918
1837.5776,0.005028
1838.5094,0.006047
1839.4412,0.006823
1840.3731,0.006678
1841.3049,0.006069
1842.2367,0.006015
1843.1686,0.006009
1844.1004,0.005823
1845.0322,0.006831
1845.9641,0.007413
1846.8959,0.006261
1847.8277,0.005741
1848.7596,0.005957
1849.6914,0.006517
1850.6232,0.006399
1851.5551,0.005622
1852.4869,0.005658
1853.4187,0.005701
1854.3506,0.005675
1855.2824,0.006307
1856.2142,0.006413
1857.1461,0.005627
1858.0779,0.005332
1859.0097,0.005373
1859.9416,0.005471
1860.8734,0.005724
1861.8052,0.005015
1862.7371,0.005208
1863.6689,0.006028
1864.6008,0.004998
1865.5326,0.004631
1866.4644,0.005705
1867.3963,0.006368
1868.3281,0.005801
1869.2599,0.005440
1870.1918,0.005486
1871.1236,0.005936
1872.0554,0.005690
1872.9873,0.005085
1873.9191,0.005493
1874.8509,0.005470
1875.7828,0.005403
1876.7146,0.006385
1877.6464,0.006161
1878.5783,0.004786
1879.5101,0.004522
1880.4419,0.004469
1881.3738,0.004242
1882.3056,0.004911
1883.2374,0.005681
1884.1693,0.005815
1885.1011,0.005814
1886.0329,0.006023
1886.9648,0.005844
1887.8966,0.005176
1888.8284,0.005162
1889.7603,0.005545
1890.6921,0.005468
1891.6240,0.004711
1892.5558,0.004137
1893.4876,0.004320
1894.4195,0.004705
1895.3513,0.005133
1896.2831,0.005680
1897.2150,0.005775
1898.1468,0.005362
1899.0786,0.005230
1900.0105,0.005340
1900.9423,0.005368
1901.8741,0.005149
1902.8060,0.004889
1903.7378,0.005576
1904.6696,0.006103
1905.6015,0.005227
1906.5333,0.005287
1907.4651,0.005996
1908.3970,0.006180
1909.3288,0.006086
1910.2606,0.006042
1911.1925,0.006387
1912.1243,0.006849
1913.0561,0.006634
1913.9880,0.006260
1914.9198,0.006120
1915.8516,0.006310
1916.7835,0.006733
1917.7153,0.006920
1918.6472,0.007115
1919.5790,0.005945
1920.5108,0.006553
1921.4427,0.008272
1922.3745,0.007922
1923.3063,0.006920
1924.2382,0.006344
1925.1700,0.006918
1926.1018,0.008108
1927.0337,0.007120
1927.9655,0.005328
1928.8973,0.006585
1929.8292,0.007289
1930.7610,0.005267
1931.6928,0.005389
1932.6247,0.005757
1933.5565,0.005248
1934.4883,0.005495
1935.4202,0.005668
1936.3520,0.005091
1937.2838,0.003511
1938.2157,0.003291
1939.1475,0.004158
1940.0793,0.003224
1941.0112,0.003640
1941.9430,0.005376
1942.8748,0.004926
1943.8067,0.003313
1944.7385,0.001360
1945.6704,0.001063
1946.6022,0.001914
1947.5340,0.003639
1948.4659,0.003753
1949.3977,0.001707
1950.3295,0.001670
1951.2614,0.004156
1952.1932,0.005825
1953.1250,0.003697
1954.0569,0.002387
1954.9887,0.003347
1955.9205,0.004493
1956.8524,0.003916
1957.7842,0.002069
1958.7160,0.001291
1959.6479,-0.000241
1960.5797,0.000228
1961.5115,0.001823
1962.4434,0.001460
1963.3752,0.000472
1964.3070,0.001518
1965.2389,0.001852
1966.1707,-0.000571
1967.1025,-0.001190
1968.0344,0.001721
1968.9662,0.002826
1969.8980,-0.000391
1970.8299,-0.001265
1971.7617,-0.000003
1972.6936,-0.001138
1973.6254,-0.002085
1974.5572,0.000762
1975.4891,-0.000195
1976.4209,-0.003295
1977.3527,-0.004641
1978.2846,-0.005084
1979.2164,-0.003436
1980.1482,-0.000145
1981.0801,0.001593
1982.0119,-0.000099
1982.9437,-0.001999
1983.8756,0.000764
1984.8074,0.004101
1985.7392,0.002596
1986.6711,-0.000035
1987.6029,-0.000534
1988.5347,-0.000920
1989.4666,0.000038
1990.3984,0.002434
1991.3302,0.003060
1992.2621,0.000183
1993.1939,0.001247
1994.1257,0.004019
1995.0576,0.003077
1995.9894,0.002314
1996.9212,0.001001
1997.8531,-0.000318
1998.7849,0.001184
1999.7167,0.003203
2000.6486,0.001010
2001.5804,-0.000970
2002.5123,0.002391
2003.4441,0.006446
2004.3759,0.005799
2005.3078,0.003692
2006.2396,0.002742
2007.1714,0.002064
2008.1033,0.001863
2009.0351,0.002604
2009.9669,-0.000241
2010.8988,0.000283
2011.8306,0.003497
2012.7624,0.002207
2013.6943,0.000114
2014.6261,-0.000450
2015.5579,0.000276
2016.4898,-0.001441
2017.4216,-0.001437
2018.3534,0.000644
2019.2853,-0.001793
2020.2171,0.000002
2021.1489,0.001843
2022.0808,0.001153
2023.0126,0.001715
2023.9444,0.002732
2024.8763,0.002061
2025.8081,-0.000526
2026.7399,-0.000935
2027.6718,0.001385
2028.6036,0.001515
2029.5355,0.003190
2030.4673,0.006148
2031.3991,0.002787
2032.3310,-0.001694
2033.2628,0.001231
2034.1946,0.005492
2035.1265,0.003133
2036.0583,0.000844
2036.9901,0.000832
2037.9220,-0.000304
2038.8538,0.000655
2039.7856,0.004193
2040.7175,0.006350
2041.6493,0.006642
2042.5811,0.004480
2043.5130,0.000496
2044.4448,0.001614
2045.3766,0.003170
2046.3085,0.003407
2047.2403,0.003694
2048.1721,0.002101
2049.1040,0.002056
2050.0358,0.001830
2050.9676,0.000854
2051.8995,0.001997
2052.8313,0.002546
2053.7631,0.002695
2054.6950,0.003007
2055.6268,0.004789
2056.5587,0.007132
2057.4905,0.007438
2058.4223,0.005011
2059.3542,0.003405
2060.2860,0.003231
2061.2178,0.004789
2062.1497,0.006940
2063.0815,0.006564
2064.0133,0.005055
2064.9452,0.004815
2065.8770,0.005523
2066.8088,0.006084
2067.7407,0.005807
2068.6725,0.004809
2069.6043,0.006015
2070.5362,0.008266
2071.4680,0.007766
2072.3998,0.005854
2073.3317,0.005753
2074.2635,0.006062
2075.1953,0.005401
2076.1272,0.006173
2077.0590,0.006248
2077.9908,0.005783
2078.9227,0.006612
2079.8545,0.008116
2080.7863,0.008830
2081.7182,0.007265
2082.6500,0.007036
2083.5819,0.008020
2084.5137,0.006966
2085.4455,0.006392
2086.3774,0.006119
2087.3092,0.006257
2088.2410,0.007258
2089.1729,0.007814
2090.1047,0.007604
2091.0365,0.008821
2091.9684,0.007695
2092.9002,0.005666
2093.8320,0.005501
2094.7639,0.006221
2095.6957,0.006772
2096.6275,0.006892
2097.5594,0.006812
2098.4912,0.006546
2099.4230,0.005454
2100.3549,0.005715
2101.2867,0.006861
2102.2185,0.007257
2103.1504,0.008202
2104.0822,0.006922
2105.0140,0.005349
2105.9459,0.006400
2106.8777,0.007657
2107.8095,0.006868
2108.7414,0.004842
2109.6732,0.004712
2110.6051,0.006195
2111.5369,0.006802
2112.4687,0.006012
2113.4006,0.006133
2114.3324,0.006999
2115.2642,0.006836
2116.1961,0.006949
2117.1279,0.007686
2118.0597,0.007111
2118.9916,0.006884
2119.9234,0.007837
2120.8552,0.008278
2121.7871,0.007814
2122.7189,0.006724
2123.6507,0.007013
2124.5826,0.007445
2125.5144,0.006797
2126.4462,0.007618
2127.3781,0.008468
2128.3099,0.007551
2129.2417,0.006411
2130.1736,0.006959
2131.1054,0.008831
2132.0372,0.010854
2132.9691,0.010483
2133.9009,0.008837
2134.8327,0.007865
2135.7646,0.008064
2136.6964,0.005965
2137.6282,0.004451
2138.5601,0.006715
2139.4919,0.007512
2140.4238,0.006557
2141.3556,0.005014
2142.2874,0.002906
2143.2193,0.001660
2144.1511,0.002131
2145.0829,0.001673
2146.0148,0.002911
2146.9466,0.004741
2147.8784,0.005304
2148.8103,0.004357
2149.7421,0.004404
2150.6739,0.006864
2151.6058,0.006611
2152.5376,0.006119
2153.4694,0.004056
2154.4013,-0.000443
2155.3331,-0.001972
2156.2649,0.000338
2157.1968,0.000824
2158.1286,-0.001319
2159.0604,-0.002514
2159.9923,-0.001957
2160.9241,-0.000840
2161.8559,0.005538
2162.7878,0.007708
2163.7196,0.003209
2164.6514,-0.000761
2165.5833,0.000081
2166.5151,0.002926
2167.4470,0.002954
2168.3788,0.001667
2169.3106,0.001525
2170.2425,-0.000284
2171.1743,-0.001211
2172.1061,0.002730
2173.0380,0.004689
2173.9698,0.003590
2174.9016,0.003409
2175.8335,0.002602
2176.7653,0.001883
2177.6971,0.001130
2178.6290,-0.000822
2179.5608,-0.002202
2180.4926,0.000081
2181.4245,0.002097
2182.3563,0.000255
2183.2881,-0.001069
2184.2200,0.001653
2185.1518,0.001744
2186.0836,0.001541
2187.0155,0.002659
2187.9473,0.002196
2188.8791,0.001045
2189.8110,0.000091
2190.7428,0.000955
2191.6746,0.002543
2192.6065,0.000494
2193.5383,-0.000733
2194.4702,0.000388
2195.4020,0.001562
2196.3338,0.002673
2197.2657,0.002027
2198.1975,0.001812
2199.1293,0.003891
2200.0612,0.003056
2200.9930,0.001205
2201.9248,0.000919
2202.8567,0.003997
2203.7885,0.003599
2204.7203,0.001989
2205.6522,0.002235
2206.5840,0.001481
2207.5158,0.001354
2208.4477,0.002106
2209.3795,0.003737
2210.3113,0.004385
2211.2432,0.003726
2212.1750,0.004560
2213.1068,0.007155
2214.0387,0.007286
2214.9705,0.006270
2215.9023,0.005914
2216.8342,0.002918
2217.7660,0.002018
2218.6978,0.004310
2219.6297,0.003769
2220.5615,0.002486
2221.4934,0.003657
2222.4252,0.003822
2223.3570,0.004228
2224.2889,0.005078
2225.2207,0.006463
2226.1525,0.006255
2227.0844,0.004297
2228.0162,0.004825
2228.9480,0.006623
2229.8799,0.005604
2230.8117,0.002460
2231.7435,0.003870
2232.6754,0.007059
2233.6072,0.007171
2234.5390,0.006139
2235.4709,0.005148
2236.4027,0.003745
2237.3345,0.002481
2238.2664,0.002778
2239.1982,0.002932
2240.1300,0.002216
2241.0619,0.002273
2241.9937,0.003346
2242.9255,0.003785
2243.8574,0.004031
2244.7892,0.004346
2245.7210,0.004441
2246.6529,0.004501
2247.5847,0.005855
2248.5166,0.007046
2249.4484,0.007293
2250.3802,0.007416
2251.3121,0.006360
2252.2439,0.004634
2253.1757,0.003882
2254.1076,0.004947
2255.0394,0.005752
2255.9712,0.006339
2256.9031,0.006502
2257.8349,0.005391
2258.7667,0.004554
2259.6986,0.003996
2260.6304,0.003679
2261.5622,0.004628
2262.4941,0.004909
2263.4259,0.004928
2264.3577,0.004620
2265.2896,0.005566
2266.2214,0.005943
2267.1532,0.005389
2268.0851,0.004775
2269.0169,0.004568
2269.9487,0.004667
2270.8806,0.004614
2271.8124,0.003959
2272.7442,0.003355
2273.6761,0.004129
2274.6079,0.004852
2275.5397,0.005115
2276.4716,0.004702
2277.4034,0.005694
2278.3353,0.007293
2279.2671,0.007468
2280.1989,0.005990
2281.1308,0.005469
2282.0626,0.005238
2282.9944,0.005275
2283.9263,0.004493
2284.8581,0.004021
2285.7899,0.005105
2286.7218,0.005354
2287.6536,0.005196
2288.5854,0.005804
2289.5173,0.005829
2290.4491,0.005314
2291.3809,0.005265
2292.3128,0.005927
2293.2446,0.005839
2294.1764,0.005390
2295.1083,0.004861
2296.0401,0.005106
2296.9719,0.005418
2297.9038,0.005740
2298.8356,0.005202
2299.7674,0.005107
2300.6993,0.006349
2301.6311,0.006492
2302.5629,0.005867
2303.4948,0.004570
2304.4266,0.004913
2305.3585,0.006321
2306.2903,0.005947
2307.2221,0.005271
2308.1540,0.005668
2309.0858,0.005794
2310.0176,0.005776
2310.9495,0.005645
2311.8813,0.005401
2312.8131,0.005738
2313.7450,0.005662
2314.6768,0.005153
2315.6086,0.004771
2316.5405,0.004841
2317.4723,0.005565
2318.4041,0.006090
2319.3360,0.005584
2320.2678,0.005110
2321.1996,0.005719
2322.1315,0.006314
2323.0633,0.005796
2323.9951,0.004930
2324.9270,0.004597
2325.8588,0.005138
2326.7906,0.005748
2327.7225,0.005813
2328.6543,0.004369
2329.5861,0.003884
2330.5180,0.004816
2331.4498,0.006122
2332.3817,0.006253
2333.3135,0.005408
2334.2453,0.005408
2335.1772,0.005167
2336.1090,0.004554
2337.0408,0.004085
2337.9727,0.004021
2338.9045,0.005131
2339.8363,0.005495
2340.7682,0.004886
2341.7000,0.004748
2342.6318,0.004798
2343.5637,0.005172
2344.4955,0.005763
2345.4273,0.005912
2346.3592,0.005465
2347.2910,0.005398
2348.2228,0.005360
2349.1547,0.005929
2350.0865,0.006272
2351.0183,0.005383
2351.9502,0.004804
2352.8820,0.004980
2353.8138,0.005579
2354.7457,0.005225
2355.6775,0.004346
2356.6093,0.004024
2357.5412,0.004311
2358.4730,0.004768
2359.4049,0.003954
2360.3367,0.002802
2361.2685,0.004308
2362.2004,0.005545
2363.1322,0.005719
2364.0640,0.005476
2364.9959,0.003249
2365.9277,0.002143
2366.8595,0.002426
2367.7914,0.002476
2368.7232,0.003829
2369.6550,0.005021
2370.5869,0.005117
2371.5187,0.004474
2372.4505,0.004168
2373.3824,0.004179
2374.3142,0.004443
2375.2460,0.004045
2376.1779,0.004450
2377.1097,0.004880
2378.0415,0.004603
2378.9734,0.004721
2379.9052,0.004539
2380.8370,0.004951
2381.7689,0.004411
2382.7007,0.003462
2383.6325,0.003874
2384.5644,0.004311
2385.4962,0.004126
2386.4281,0.004041
2387.3599,0.004459
2388.2917,0.004582
2389.2236,0.004425
2390.1554,0.004736
2391.0872,0.005137
2392.0191,0.005856
2392.9509,0.005747
2393.8827,0.005451
2394.8146,0.004930
2395.7464,0.004245
2396.6782,0.004053
2397.6101,0.004332
2398.5419,0.004970
2399.4737,0.004359
2400.4056,0.004194
2401.3374,0.004764
2402.2692,0.005419
2403.2011,0.005243
2404.1329,0.004618
2405.0647,0.004510
2405.9966,0.005207
2406.9284,0.005503
2407.8602,0.004773
2408.7921,0.004464
2409.7239,0.004848
2410.6557,0.004700
2411.5876,0.004631
2412.5194,0.004374
2413.4512,0.003949
2414.3831,0.003559
2415.3149,0.003917
2416.2468,0.004293
2417.1786,0.004187
2418.1104,0.004256
2419.0423,0.004339
2419.9741,0.004115
2420.9059,0.004205
2421.8378,0.004527
2422.7696,0.004653
2423.7014,0.004637
2424.6333,0.005442
2425.5651,0.005523
2426.4969,0.004373
2427.4288,0.004337
2428.3606,0.004763
2429.2924,0.003797
2430.2243,0.003301
2431.1561,0.003941
2432.0879,0.004074
2433.0198,0.003652
2433.9516,0.004043
2434.8834,0.004467
2435.8153,0.003874
2436.7471,0.003029
2437.6789,0.003162
2438.6108,0.003568
2439.5426,0.004027
2440.4744,0.004824
2441.4063,0.004596
2442.3381,0.003833
2443.2700,0.004267
2444.2018,0.004612
2445.1336,0.004750
2446.0655,0.004454
2446.9973,0.004272
2447.9291,0.003408
2448.8610,0.002401
2449.7928,0.002812
2450.7246,0.003138
2451.6565,0.003134
2452.5883,0.003453
2453.5201,0.003686
2454.4520,0.003126
2455.3838,0.003212
2456.3156,0.003459
2457.2475,0.003747
2458.1793,0.004278
2459.1111,0.005060
2460.0430,0.004609
2460.9748,0.003169
2461.9066,0.003360
2462.8385,0.003961
2463.7703,0.004220
2464.7021,0.004178
2465.6340,0.003209
2466.5658,0.003046
2467.4976,0.003621
2468.4295,0.004178
2469.3613,0.004337
2470.2932,0.004422
2471.2250,0.004767
2472.1568,0.004663
2473.0887,0.003805
2474.0205,0.003206
2474.9523,0.003889
2475.8842,0.004155
2476.8160,0.004320
2477.7478,0.004636
2478.6797,0.004623
2479.6115,0.004527
2480.5433,0.004776
2481.4752,0.004641
2482.4070,0.004214
2483.3388,0.003771
2484.2707,0.003595
2485.2025,0.003909
2486.1343,0.004254
2487.0662,0.004540
2487.9980,0.004640
2488.9298,0.004714
2489.8617,0.004665
2490.7935,0.004547
2491.7253,0.004678
2492.6572,0.004309
2493.5890,0.003902
2494.5208,0.004490
2495.4527,0.004864
2496.3845,0.004386
2497.3164,0.004013
2498.2482,0.004680
2499.1800,0.004872
2500.1119,0.004573
2501.0437,0.005616
2501.9755,0.005148
2502.9074,0.004973
2503.8392,0.005326
2504.7710,0.004079
2505.7029,0.004108
2506.6347,0.005455
2507.5665,0.005532
2508.4984,0.005120
2509.4302,0.004757
2510.3620,0.004788
2511.2939,0.004811
2512.2257,0.003993
2513.1575,0.003499
2514.0894,0.003847
2515.0212,0.004360
2515.9530,0.004747
2516.8849,0.004696
2517.8167,0.005075
2518.7485,0.005083
2519.6804,0.004049
2520.6122,0.003712
2521.5440,0.004161
2522.4759,0.004428
2523.4077,0.005007
2524.3396,0.004950
2525.2714,0.004159
2526.2032,0.003592
2527.1351,0.004942
2528.0669,0.005867
2528.9987,0.005096
2529.9306,0.004358
2530.8624,0.004199
2531.7942,0.005007
2532.7261,0.005107
2533.6579,0.004411
2534.5897,0.004218
2535.5216,0.004280
2536.4534,0.004689
2537.3852,0.005642
2538.3171,0.006237
2539.2489,0.005745
2540.1807,0.005456
2541.1126,0.004612
2542.0444,0.004548
2542.9762,0.005301
2543.9081,0.004819
2544.8399,0.004119
2545.7717,0.004573
2546.7036,0.005187
2547.6354,0.005751
2548.5672,0.006072
2549.4991,0.005796
2550.4309,0.004711
2551.3627,0.003766
2552.2946,0.003955
2553.2264,0.004899
2554.1583,0.005047
2555.0901,0.005004
2556.0219,0.004651
2556.9538,0.004066
2557.8856,0.003671
2558.8174,0.003348
2559.7493,0.003373
2560.6811,0.003893
2561.6129,0.004284
2562.5448,0.005070
2563.4766,0.005376
2564.4084,0.005194
2565.3403,0.005072
2566.2721,0.004194
2567.2039,0.003712
2568.1358,0.004355
2569.0676,0.004175
2569.9994,0.003523
2570.9313,0.003366
2571.8631,0.003739
2572.7949,0.004055
2573.7268,0.004401
2574.6586,0.005177
2575.5904,0.006130
2576.5223,0.005142
2577.4541,0.004004
2578.3859,0.004391
2579.3178,0.004589
2580.2496,0.003872
2581.1815,0.003764
2582.1133,0.004548
2583.0451,0.004510
2583.9770,0.004076
2584.9088,0.004002
2585.8406,0.003042
2586.7725,0.003013
2587.7043,0.003950
2588.6361,0.004322
2589.5680,0.004123
2590.4998,0.004167
2591.4316,0.004388
2592.3635,0.004201
2593.2953,0.004162
2594.2271,0.004171
2595.1590,0.003799
2596.0908,0.003970
2597.0226,0.004244
2597.9545,0.003248
2598.8863,0.003578
2599.8181,0.005661
2600.7500,0.005901
2601.6818,0.005190
2602.6136,0.005439
2603.5455,0.004766
2604.4773,0.004663
2605.4091,0.005377
2606.3410,0.005368
2607.2728,0.004991
2608.2047,0.005023
2609.1365,0.004682
2610.0683,0.004334
2611.0002,0.004449
2611.9320,0.004533
2612.8638,0.005117
2613.7957,0.005221
2614.7275,0.004668
2615.6593,0.004187
2616.5912,0.004446
2617.5230,0.005503
2618.4548,0.005184
2619.3867,0.004711
2620.3185,0.005267
2621.2503,0.005917
2622.1822,0.005604
2623.1140,0.005139
2624.0458,0.005070
2624.9777,0.005518
2625.9095,0.005656
2626.8413,0.005769
2627.7732,0.005931
2628.7050,0.005574
2629.6368,0.005494
2630.5687,0.005149
2631.5005,0.005054
2632.4323,0.006042
2633.3642,0.006333
2634.2960,0.005632
2635.2279,0.005148
2636.1597,0.005573
2637.0915,0.006606
2638.0234,0.007098
2638.9552,0.006958
2639.8870,0.006285
2640.8189,0.005842
2641.7507,0.005848
2642.6825,0.005951
2643.6144,0.006058
2644.5462,0.006326
2645.4780,0.006068
2646.4099,0.005445
2647.3417,0.005587
2648.2735,0.006356
2649.2054,0.006461
2650.1372,0.006394
2651.0690,0.006542
2652.0009,0.006487
2652.9327,0.006328
2653.8645,0.006583
2654.7964,0.006835
2655.7282,0.006786
2656.6600,0.006893
2657.5919,0.007003
2658.5237,0.006858
2659.4555,0.006708
2660.3874,0.006833
2661.3192,0.007024
2662.2511,0.007195
2663.1829,0.007335
2664.1147,0.007251
2665.0466,0.006811
2665.9784,0.006750
2666.9102,0.006968
2667.8421,0.007181
2668.7739,0.007293
2669.7057,0.007191
2670.6376,0.007274
2671.5694,0.007444
2672.5012,0.007366
2673.4331,0.007215
2674.3649,0.007400
2675.2967,0.007695
2676.2286,0.007756
2677.1604,0.007484
2678.0922,0.007527
2679.0241,0.007979
2679.9559,0.008108
2680.8877,0.008297
2681.8196,0.008448
2682.7514,0.008205
2683.6832,0.008457
2684.6151,0.008789
2685.5469,0.008249
2686.4787,0.007997
2687.4106,0.008366
2688.3424,0.008861
2689.2742,0.009260
2690.2061,0.009272
2691.1379,0.008593
2692.0698,0.008095
2693.0016,0.008710
2693.9334,0.009209
2694.8653,0.009092
2695.7971,0.008727
2696.7289,0.008831
2697.6608,0.009543
2698.5926,0.009692
2699.5244,0.009240
2700.4563,0.009157
2701.3881,0.009571
2702.3199,0.010269
2703.2518,0.010548
2704.1836,0.010195
2705.1154,0.009988
2706.0473,0.009671
2706.9791,0.009697
2707.9109,0.010173
2708.8428,0.010740
2709.7746,0.011113
2710.7064,0.010935
2711.6383,0.010785
2712.5701,0.010609
2713.5019,0.010712
2714.4338,0.011242
2715.3656,0.011680
2716.2974,0.011414
2717.2293,0.010804
2718.1611,0.010792
2719.0930,0.011040
2720.0248,0.011037
2720.9566,0.011311
2721.8885,0.011567
2722.8203,0.011813
2723.7521,0.011988
2724.6840,0.011820
2725.6158,0.012027
2726.5476,0.012487
2727.4795,0.012460
2728.4113,0.012519
2729.3431,0.012982
2730.2750,0.012987
2731.2068,0.012122
2732.1386,0.012220
2733.0705,0.012980
2734.0023,0.012901
2734.9341,0.013098
2735.8660,0.013500
2736.7978,0.013327
2737.7296,0.013496
2738.6615,0.013447
2739.5933,0.012818
2740.5251,0.012970
2741.4570,0.013630
2742.3888,0.013688
2743.3206,0.013632
2744.2525,0.013530
2745.1843,0.013211
2746.1162,0.013225
2747.0480,0.013604
2747.9798,0.013946
2748.9117,0.013771
2749.8435,0.013706
2750.7753,0.014416
2751.7072,0.014473
2752.6390,0.013865
2753.5708,0.013678
2754.5027,0.013939
2755.4345,0.014030
2756.3663,0.014150
2757.2982,0.014176
2758.2300,0.013639
2759.1618,0.013347
2760.0937,0.013907
2761.0255,0.014194
2761.9573,0.014003
2762.8892,0.013909
2763.8210,0.013948
2764.7528,0.013982
2765.6847,0.014100
2766.6165,0.013951
2767.5483,0.014082
2768.4802,0.014584
2769.4120,0.014568
2770.3438,0.014652
2771.2757,0.015051
2772.2075,0.014867
2773.1394,0.014274
2774.0712,0.014219
2775.0030,0.014589
2775.9349,0.014942
2776.8667,0.014813
2777.7985,0.014387
2778.7304,0.014370
2779.6622,0.014752
2780.5940,0.015339
2781.5259,0.015669
2782.4577,0.015610
2783.3895,0.015721
2784.3214,0.015878
2785.2532,0.015776
2786.1850,0.015119
2787.1169,0.014553
2788.0487,0.015071
2788.9805,0.015979
2789.9124,0.016810
2790.8442,0.016996
2791.7760,0.016456
2792.7079,0.016879
2793.6397,0.017720
2794.5715,0.017806
2795.5034,0.017447
2796.4352,0.017232
2797.3670,0.017372
2798.2989,0.017713
2799.2307,0.018310
2800.1626,0.019110
2801.0944,0.019328
2802.0262,0.019121
2802.9581,0.018881
2803.8899,0.019097
2804.8217,0.019666
2805.7536,0.020205
2806.6854,0.020827
2807.6172,0.020581
2808.5491,0.020386
2809.4809,0.021142
2810.4127,0.022001
2811.3446,0.022232
2812.2764,0.022515
2813.2082,0.023276
2814.1401,0.023379
2815.0719,0.023181
2816.0037,0.023325
2816.9356,0.023427
2817.8674,0.023854
2818.7992,0.024222
2819.7311,0.024733
2820.6629,0.025196
2821.5947,0.025015
2822.5266,0.024620
2823.4584,0.024533
2824.3902,0.025127
2825.3221,0.025635
2826.2539,0.025861
2827.1857,0.025867
2828.1176,0.025819
2829.0494,0.026313
2829.9813,0.026819
2830.9131,0.026882
2831.8449,0.026877
2832.7768,0.027320
2833.7086,0.027521
2834.6404,0.027580
2835.5723,0.028771
2836.5041,0.029205
2837.4359,0.028922
2838.3678,0.029833
2839.2996,0.030558
2840.2314,0.030356
2841.1633,0.029939
2842.0951,0.030144
2843.0269,0.030985
2843.9588,0.031628
2844.8906,0.031840
2845.8224,0.031754
2846.7543,0.031579
2847.6861,0.031723
2848.6179,0.032593
2849.5498,0.033517
2850.4816,0.033573
2851.4134,0.033754
2852.3453,0.034498
2853.2771,0.034923
2854.2089,0.035605
2855.1408,0.036563
2856.0726,0.036802
2857.0045,0.036972
2857.9363,0.037444
2858.8681,0.038004
2859.8000,0.038921
2860.7318,0.039752
2861.6636,0.040139
2862.5955,0.041137
2863.5273,0.042382
2864.4591,0.042946
2865.3910,0.044085
2866.3228,0.045308
2867.2546,0.046125
2868.1865,0.047222
2869.1183,0.048673
2870.0501,0.049650
2870.9820,0.050344
2871.9138,0.051209
2872.8456,0.052277
2873.7775,0.053953
2874.7093,0.055370
2875.6411,0.056213
2876.5730,0.056758
2877.5048,0.057222
2878.4366,0.058075
2879.3685,0.059057
2880.3003,0.059850
2881.2321,0.060236
2882.1640,0.060761
2883.0958,0.061420
2884.0277,0.061847
2884.9595,0.061742
2885.8913,0.061792
2886.8232,0.062699
2887.7550,0.063483
2888.6868,0.063880
2889.6187,0.064205
2890.5505,0.064332
2891.4823,0.064597
2892.4142,0.065172
2893.3460,0.065701
2894.2778,0.065623
2895.2097,0.065712
2896.1415,0.066276
2897.0733,0.066720
2898.0052,0.066962
2898.9370,0.066951
2899.8688,0.066689
2900.8007,0.066092
2901.7325,0.065982
2902.6643,0.066419
2903.5962,0.066643
2904.5280,0.065830
2905.4598,0.064527
2906.3917,0.063718
2907.3235,0.062958
2908.2553,0.062061
2909.1872,0.061163
2910.1190,0.060166
2911.0509,0.059657
2911.9827,0.059556
2912.9145,0.058636
2913.8464,0.057481
2914.7782,0.057041
2915.7100,0.056920
2916.6419,0.056519
2917.5737,0.055877
2918.5055,0.055847
2919.4374,0.056211
2920.3692,0.056494
2921.3010,0.056935
2922.2329,0.057308
2923.1647,0.057560
2924.0965,0.057451
2925.0284,0.057685
2925.9602,0.058452
2926.8920,0.059294
2927.8239,0.059788
2928.7557,0.059441
2929.6875,0.059777
2930.6194,0.060524
2931.5512,0.060102
2932.4830,0.059527
2933.4149,0.059888
2934.3467,0.060111
2935.2785,0.059809
2936.2104,0.060029
2937.1422,0.059643
2938.0741,0.058635
2939.0059,0.058316
2939.9377,0.058269
2940.8696,0.058049
2941.8014,0.057830
2942.7332,0.058066
2943.6651,0.058131
2944.5969,0.057497
2945.5287,0.056658
2946.4606,0.056233
2947.3924,0.055863
2948.3242,0.054941
2949.2561,0.054331
2950.1879,0.054428
2951.1197,0.054402
2952.0516,0.054533
2952.9834,0.055104
2953.9152,0.055739
2954.8471,0.056117
2955.7789,0.056900
2956.7107,0.057849
2957.6426,0.058335
2958.5744,0.059233
2959.5062,0.061441
2960.4381,0.063903
2961.3699,0.064955
2962.3017,0.066798
2963.2336,0.070105
2964.1654,0.072951
2965.0972,0.076353
2966.0291,0.080284
2966.9609,0.083662
2967.8928,0.087126
2968.8246,0.091195
2969.7564,0.095698
2970.6883,0.100957
2971.6201,0.105516
2972.5519,0.108613
2973.4838,0.112244
2974.4156,0.115966
2975.3474,0.118964
2976.2793,0.120707
2977.2111,0.120598
2978.1429,0.119603
2979.0748,0.118473
2980.0066,0.116983
2980.9384,0.114044
2981.8703,0.110655
2982.8021,0.107110
2983.7339,0.102149
2984.6658,0.096689
2985.5976,0.091425
2986.5294,0.086167
2987.4613,0.081886
2988.3931,0.077662
2989.3249,0.073219
2990.2568,0.069863
2991.1886,0.067126
2992.1204,0.064180
2993.0523,0.060748
2993.9841,0.057932
2994.9160,0.056014
2995.8478,0.053473
2996.7796,0.050839
2997.7115,0.049752
2998.6433,0.049337
2999.5751,0.048497
3000.5070,0.047381
3001.4388,0.045914
3002.3706,0.044440
3003.3025,0.043835
3004.2343,0.044427
3005.1661,0.044472
3006.0980,0.043219
3007.0298,0.042301
3007.9616,0.042080
3008.8935,0.041745
3009.8253,0.041438
3010.7571,0.041402
3011.6890,0.040981
3012.6208,0.040395
3013.5526,0.040460
3014.4845,0.041127
3015.4163,0.042171
3016.3481,0.042368
3017.2800,0.041692
3018.2118,0.041416
3019.1436,0.041317
3020.0755,0.041490
3021.0073,0.042055
3021.9392,0.041546
3022.8710,0.041166
3023.8028,0.041918
3024.7347,0.042506
3025.6665,0.042654
3026.5983,0.042869
3027.5302,0.042854
3028.4620,0.042263
3029.3938,0.042281
3030.3257,0.043254
3031.2575,0.043841
3032.1893,0.043643
3033.1212,0.043562
3034.0530,0.044063
3034.9848,0.044746
3035.9167,0.045583
3036.8485,0.045596
3037.7803,0.045229
3038.7122,0.045272
3039.6440,0.045385
3040.5758,0.045982
3041.5077,0.047062
3042.4395,0.047979
3043.3713,0.047606
3044.3032,0.047372
3045.2350,0.048106
3046.1668,0.048167
3047.0987,0.048620
3048.0305,0.048840
3048.9624,0.048156
3049.8942,0.049018
3050.8260,0.050403
3051.7579,0.050412
3052.6897,0.050583
3053.6215,0.051250
3054.5534,0.051587
3055.4852,0.051902
3056.4170,0.052513
3057.3489,0.053613
3058.2807,0.053944
3059.2125,0.053606
3060.1444,0.053957
3061.0762,0.054546
3062.0080,0.055716
3062.9399,0.056403
3063.8717,0.056851
3064.8035,0.057345
3065.7354,0.057399
3066.6672,0.057402
3067.5990,0.057754
3068.5309,0.058319
3069.4627,0.058386
3070.3945,0.058955
3071.3264,0.059947
3072.2582,0.060185
3073.1900,0.060421
3074.1219,0.060327
3075.0537,0.061037
3075.9856,0.062033
3076.9174,0.062603
3077.8492,0.063432
3078.7811,0.063761
3079.7129,0.064249
3080.6447,0.065002
3081.5766,0.065725
3082.5084,0.066569
3083.4402,0.066705
3084.3721,0.066693
3085.3039,0.067382
3086.2357,0.068145
3087.1676,0.068217
3088.0994,0.068975
3089.0312,0.070297
3089.9631,0.071559
3090.8949,0.072799
3091.8267,0.073195
3092.7586,0.072833
3093.6904,0.072685
3094.6222,0.072970
3095.5541,0.073453
3096.4859,0.074388
3097.4177,0.075097
3098.3496,0.075406
3099.2814,0.076448
3100.2132,0.077311
3101.1451,0.077768
3102.0769,0.078185
3103.0087,0.078929
3103.9406,0.079746
3104.8724,0.079977
3105.8043,0.080867
3106.7361,0.081440
3107.6679,0.081832
3108.5998,0.083261
3109.5316,0.084345
3110.4634,0.084677
3111.3953,0.085838
3112.3271,0.086548
3113.2589,0.086728
3114.1908,0.087155
3115.1226,0.087425
3116.0544,0.087905
3116.9863,0.088886
3117.9181,0.090813
3118.8499,0.092183
3119.7818,0.092228
3120.7136,0.092521
3121.6454,0.093478
3122.5773,0.092960
3123.5091,0.092672
3124.4409,0.094250
3125.3728,0.095503
3126.3046,0.096317
3127.2364,0.097508
3128.1683,0.097945
3129.1001,0.097962
3130.0319,0.099770
3130.9638,0.101905
3131.8956,0.102781
3132.8275,0.102807
3133.7593,0.103124
3134.6911,0.104617
3135.6230,0.106274
3136.5548,0.107769
3137.4866,0.108401
3138.4185,0.108786
3139.3503,0.109161
3140.2821,0.110140
3141.2140,0.111787
3142.1458,0.111639
3143.0776,0.110740
3144.0095,0.111318
3144.9413,0.111905
3145.8731,0.113689
3146.8050,0.115575
3147.7368,0.117906
3148.6686,0.119170
3149.6005,0.118750
3150.5323,0.119186
3151.4641,0.120058
3152.3960,0.120662
3153.3278,0.121817
3154.2596,0.123670
3155.1915,0.124640
3156.1233,0.124299
3157.0551,0.124591
3157.9870,0.126070
3158.9188,0.128118
3159.8507,0.128694
3160.7825,0.128369
3161.7143,0.129091
3162.6462,0.130822
3163.5780,0.131809
3164.5098,0.131946
3165.4417,0.133537
3166.3735,0.135368
3167.3053,0.135993
3168.2372,0.137093
3169.1690,0.138379
3170.1008,0.138747
3171.0327,0.139000
3171.9645,0.140920
3172.8963,0.141176
3173.8282,0.140859
3174.7600,0.142123
3175.6918,0.144122
3176.6237,0.145651
3177.5555,0.146274
3178.4873,0.146405
3179.4192,0.147690
3180.3510,0.150161
3181.2828,0.151571
3182.2147,0.151193
3183.1465,0.151719
3184.0783,0.152883
3185.0102,0.154018
3185.9420,0.154759
3186.8739,0.155531
3187.8057,0.156185
3188.7375,0.155441
3189.6694,0.155422
3190.6012,0.158539
3191.5330,0.161362
3192.4649,0.161242
3193.3967,0.160586
3194.3285,0.161089
3195.2604,0.162699
3196.1922,0.165517
3197.1240,0.167286
3198.0559,0.167390
3198.9877,0.167489
3199.9195,0.168896
3200.8514,0.169318
3201.7832,0.169346
3202.7150,0.171079
3203.6469,0.173619
3204.5787,0.174295
3205.5105,0.173276
3206.4424,0.174101
3207.3742,0.176317
3208.3060,0.176256
3209.2379,0.175434
3210.1697,0.176390
3211.1015,0.178320
3212.0334,0.179249
3212.9652,0.180801
3213.8971,0.181055
3214.8289,0.180697
3215.7607,0.180721
3216.6926,0.182582
3217.6244,0.185207
3218.5562,0.185454
3219.4881,0.185193
3220.4199,0.186516
3221.3517,0.186392
3222.2836,0.186328
3223.2154,0.186306
3224.1472,0.188141
3225.0791,0.188781
3226.0109,0.189548
3226.9427,0.191162
3227.8746,0.191934
3228.8064,0.191603
3229.7382,0.190522
3230.6701,0.189925
3231.6019,0.192493
3232.5337,0.196008
3233.4656,0.196757
3234.3974,0.196864
3235.3292,0.198265
3236.2611,0.199219
3237.1929,0.198731
3238.1247,0.196876
3239.0566,0.196571
3239.9884,0.198513
3240.9202,0.199816
3241.8521,0.200123
3242.7839,0.199674
3243.7158,0.199754
3244.6476,0.201940
3245.5794,0.201950
3246.5113,0.200136
3247.4431,0.200364
3248.3749,0.202723
3249.3068,0.204694
3250.2386,0.204853
3251.1704,0.204326
3252.1023,0.203995
3253.0341,0.203415
3253.9659,0.202679
3254.8978,0.203364
3255.8296,0.205837
3256.7614,0.206678
3257.6933,0.207288
3258.6251,0.209404
3259.5569,0.208795
3260.4888,0.205971
3261.4206,0.204592
3262.3524,0.204944
3263.2843,0.206683
3264.2161,0.208283
3265.1479,0.208492
3266.0798,0.207482
3267.0116,0.207761
3267.9434,0.209219
3268.8753,0.210201
3269.8071,0.210267
3270.7390,0.211703
3271.6708,0.209718
3272.6026,0.209319
3273.5345,0.211138
3274.4663,0.211262
3275.3981,0.210451
3276.3300,0.211205
3277.2618,0.211518
3278.1936,0.211510
3279.1255,0.213268
3280.0573,0.213358
3280.9891,0.211750
3281.9210,0.213024
3282.8528,0.213297
3283.7846,0.211752
3284.7165,0.211405
3285.6483,0.213105
3286.5801,0.214388
3287.5120,0.214749
3288.4438,0.213732
3289.3756,0.214142
3290.3075,0.214121
3291.2393,0.214519
3292.1711,0.214895
3293.1030,0.215240
3294.0348,0.215374
3294.9666,0.214738
3295.8985,0.213473
3296.8303,0.214218
3297.7622,0.216912
3298.6940,0.216689
3299.6258,0.216334
3300.5577,0.216443
3301.4895,0.215256
3302.4213,0.217397
3303.3532,0.219695
3304.2850,0.217715
3305.2168,0.216204
3306.1487,0.217401
3307.0805,0.217994
3308.0123,0.219332
3308.9442,0.218324
3309.8760,0.217864
3310.8078,0.218566
3311.7397,0.218469
3312.6715,0.217960
3313.6033,0.218821
3314.5352,0.218936
3315.4670,0.219589
3316.3988,0.219541
3317.3307,0.219349
3318.2625,0.218795
3319.1943,0.217782
3320.1262,0.217474
3321.0580,0.219669
3321.9898,0.219525
3322.9217,0.219636
3323.8535,0.218313
3324.7854,0.217293
3325.7172,0.218672
3326.6490,0.220215
3327.5809,0.219349
3328.5127,0.220208
3329.4445,0.221639
3330.3764,0.222257
3331.3082,0.221485
3332.2400,0.222501
3333.1719,0.222311
3334.1037,0.221786
3335.0355,0.222117
3335.9674,0.221873
3336.8992,0.222229
3337.8310,0.223058
3338.7629,0.222314
3339.6947,0.221962
3340.6265,0.221522
3341.5584,0.221590
3342.4902,0.222460
3343.4220,0.225118
3344.3539,0.224363
3345.2857,0.224309
3346.2175,0.224294
3347.1494,0.223460
3348.0812,0.223345
3349.0130,0.222790
3349.9449,0.220935
3350.8767,0.221438
3351.8086,0.222647
3352.7404,0.223625
3353.6722,0.223283
3354.6041,0.222691
3355.5359,0.223186
3356.4677,0.223966
3357.3996,0.222624
3358.3314,0.222570
3359.2632,0.222463
3360.1951,0.222527
3361.1269,0.222674
3362.0587,0.223066
3362.9906,0.222510
3363.9224,0.221986
3364.8542,0.221572
3365.7861,0.223357
3366.7179,0.224305
3367.6497,0.226048
3368.5816,0.225712
3369.5134,0.224438
3370.4452,0.223221
3371.3771,0.220586
3372.3089,0.218829
3373.2407,0.220447
3374.1726,0.219756
3375.1044,0.220151
3376.0362,0.219235
3376.9681,0.219911
3377.8999,0.222036
3378.8317,0.222127
3379.7636,0.218666
3380.6954,0.217359
3381.6273,0.218172
3382.5591,0.219786
3383.4909,0.217388
3384.4228,0.217828
3385.3546,0.220198
3386.2864,0.221593
3387.2183,0.218416
3388.1501,0.217546
3389.0819,0.218587
3390.0138,0.217723
3390.9456,0.216220
3391.8774,0.216222
3392.8093,0.216898
3393.7411,0.215843
3394.6729,0.212847
3395.6048,0.212101
3396.5366,0.212125
3397.4684,0.214273
3398.4003,0.212003
3399.3321,0.211356
3400.2639,0.212061
3401.1958,0.212026
3402.1276,0.210730
3403.0594,0.208733
3403.9913,0.208212
3404.9231,0.209286
3405.8549,0.208200
3406.7868,0.206860
3407.7186,0.207460
3408.6505,0.207933
3409.5823,0.206158
3410.5141,0.206803
3411.4460,0.208536
3412.3778,0.208354
3413.3096,0.203917
3414.2415,0.202482
3415.1733,0.200758
3416.1051,0.199225
3417.0370,0.197729
3417.9688,0.196902
3418.9006,0.197561
3419.8325,0.198797
3420.7643,0.198597
3421.6961,0.198893
3422.6280,0.198211
3423.5598,0.195239
3424.4916,0.194179
3425.4235,0.195081
3426.3553,0.195891
3427.2871,0.196801
3428.2190,0.195550
3429.1508,0.192266
3430.0826,0.192023
3431.0145,0.195060
3431.9463,0.194718
3432.8781,0.192417
3433.8100,0.189200
3434.7418,0.186457
3435.6737,0.186344
3436.6055,0.185828
3437.5373,0.183275
3438.4692,0.182375
3439.4010,0.182264
3440.3328,0.180644
3441.2647,0.180284
3442.1965,0.179742
3443.1283,0.177343
3444.0602,0.177777
3444.9920,0.179171
3445.9238,0.177882
3446.8557,0.176927
3447.7875,0.179279
3448.7193,0.179437
3449.6512,0.178061
3450.5830,0.175658
3451.5148,0.173385
3452.4467,0.170788
3453.3785,0.169785
3454.3103,0.168950
3455.2422,0.170087
3456.1740,0.168775
3457.1058,0.168211
3458.0377,0.165464
3458.9695,0.163051
3459.9013,0.163280
3460.8332,0.163715
3461.7650,0.164739
3462.6969,0.166950
3463.6287,0.165629
3464.5605,0.163604
3465.4924,0.159493
3466.4242,0.158911
3467.3560,0.159312
3468.2879,0.160022
3469.2197,0.160790
3470.1515,0.159709
3471.0834,0.157457
3472.0152,0.154619
3472.9470,0.154448
3473.8789,0.153431
3474.8107,0.151245
3475.7425,0.151766
3476.6744,0.150631
3477.6062,0.149199
3478.5380,0.146515
3479.4699,0.144807
3480.4017,0.146131
3481.3335,0.148335
3482.2654,0.144685
3483.1972,0.142467
3484.1290,0.141842
3485.0609,0.142038
3485.9927,0.144181
3486.9245,0.142481
3487.8564,0.141528
3488.7882,0.141028
3489.7201,0.140819
3490.6519,0.141200
3491.5837,0.140334
3492.5156,0.139477
3493.4474,0.136412
3494.3792,0.133679
3495.3111,0.133189
3496.2429,0.134261
3497.1747,0.134139
3498.1066,0.134004
3499.0384,0.133157
3499.9702,0.133657
3500.9021,0.128758
3501.8339,0.123562
3502.7657,0.124582
3503.6976,0.128284
3504.6294,0.129125
3505.5612,0.126799
3506.4931,0.122419
3507.4249,0.121500
3508.3567,0.123118
3509.2886,0.124212
3510.2204,0.124597
3511.1522,0.125096
3512.0841,0.125321
3513.0159,0.121579
3513.9477,0.117317
3514.8796,0.117619
3515.8114,0.117113
3516.7432,0.117723
3517.6751,0.116291
3518.6069,0.112315
3519.5388,0.112334
3520.4706,0.114139
3521.4024,0.113231
3522.3343,0.111257
3523.2661,0.110495
3524.1979,0.109777
3525.1298,0.107794
3526.0616,0.108413
3526.9934,0.107376
3527.9253,0.104739
3528.8571,0.102570
3529.7889,0.104171
3530.7208,0.105455
3531.6526,0.105325
3532.5844,0.104147
3533.5163,0.103475
3534.4481,0.104537
3535.3799,0.103641
3536.3118,0.100811
3537.2436,0.099398
3538.1754,0.097347
3539.1073,0.096557
3540.0391,0.095751
3540.9709,0.094581
3541.9028,0.094225
3542.8346,0.095742
3543.7664,0.093882
3544.6983,0.091140
3545.6301,0.090055
3546.5620,0.089397
3547.4938,0.090068
3548.4256,0.091771
3549.3575,0.088888
3550.2893,0.087938
3551.2211,0.089610
3552.1530,0.088260
3553.0848,0.085451
3554.0166,0.086723
3554.9485,0.087104
3555.8803,0.084489
3556.8121,0.082997
3557.7440,0.082133
3558.6758,0.081088
3559.6076,0.082529
3560.5395,0.080061
3561.4713,0.077986
3562.4031,0.077922
3563.3350,0.077701
3564.2668,0.076052
3565.1986,0.075166
3566.1305,0.075927
3567.0623,0.074506
3567.9941,0.073138
3568.9260,0.073722
3569.8578,0.075846
3570.7896,0.073379
3571.7215,0.068543
3572.6533,0.068284
3573.5852,0.070118
3574.5170,0.071620
3575.4488,0.069964
3576.3807,0.066918
3577.3125,0.067770
3578.2443,0.068640
3579.1762,0.067829
3580.1080,0.066282
3581.0398,0.064421
3581.9717,0.064567
3582.9035,0.063479
3583.8353,0.063299
3584.7672,0.063020
3585.6990,0.062760
3586.6308,0.063474
3587.5627,0.062633
3588.4945,0.060921
3589.4263,0.058421
3590.3582,0.055601
3591.2900,0.053730
3592.2218,0.052360
3593.1537,0.052883
3594.0855,0.052322
3595.0173,0.053395
3595.9492,0.055606
3596.8810,0.055751
3597.8128,0.053098
3598.7447,0.052429
3599.6765,0.053179
3600.6084,0.052012
3601.5402,0.050415
3602.4720,0.050052
3603.4039,0.050823
3604.3357,0.050414
3605.2675,0.049694
3606.1994,0.049690
3607.1312,0.047991
3608.0630,0.046379
3608.9949,0.045869
3609.9267,0.045804
3610.8585,0.045481
3611.7904,0.046113
3612.7222,0.045031
3613.6540,0.044163
3614.5859,0.042317
3615.5177,0.043298
3616.4495,0.044085
3617.3814,0.041898
3618.3132,0.041629
3619.2450,0.042806
3620.1769,0.041795
3621.1087,0.040781
3622.0405,0.040337
3622.9724,0.040136
3623.9042,0.039962
3624.8360,0.040542
3625.7679,0.039187
3626.6997,0.035796
3627.6316,0.034308
3628.5634,0.035628
3629.4952,0.034855
3630.4271,0.033362
3631.3589,0.033134
3632.2907,0.033783
3633.2226,0.035290
3634.1544,0.035316
3635.0862,0.032937
3636.0181,0.031318
3636.9499,0.031754
3637.8817,0.032692
3638.8136,0.032525
3639.7454,0.030821
3640.6772,0.031049
3641.6091,0.031342
3642.5409,0.029655
3643.4727,0.028199
3644.4046,0.028664
3645.3364,0.028209
3646.2682,0.026886
3647.2001,0.027406
3648.1319,0.026927
3649.0637,0.025352
3649.9956,0.025411
3650.9274,0.026568
3651.8592,0.026934
3652.7911,0.025496
3653.7229,0.024948
3654.6547,0.025362
3655.5866,0.025557
3656.5184,0.024600
3657.4503,0.023780
3658.3821,0.022550
3659.3139,0.022005
3660.2458,0.021824
3661.1776,0.020850
3662.1094,0.020016
3663.0413,0.019747
3663.9731,0.019557
3664.9049,0.019174
3665.8368,0.018826
3666.7686,0.017719
3667.7004,0.016810
3668.6323,0.016603
3669.5641,0.016437
3670.4959,0.016074
3671.4278,0.014771
3672.3596,0.013799
3673.2914,0.014290
3674.2233,0.013288
3675.1551,0.012984
3676.0869,0.014378
3677.0188,0.013606
3677.9506,0.011590
3678.8824,0.011604
3679.8143,0.013992
3680.7461,0.014322
3681.6779,0.013138
3682.6098,0.013206
3683.5416,0.012387
3684.4735,0.010367
3685.4053,0.010174
3686.3371,0.010488
3687.2690,0.009275
3688.2008,0.009383
3689.1326,0.008518
3690.0645,0.006485
3690.9963,0.005915
3691.9281,0.006450
3692.8600,0.006517
3693.7918,0.006261
3694.7236,0.008131
3695.6555,0.009509
3696.5873,0.008066
3697.5191,0.005543
3698.4510,0.005173
3699.3828,0.005446
3700.3146,0.004329
3701.2465,0.003586
3702.1783,0.005061
3703.1101,0.005778
3704.0420,0.004267
3704.9738,0.003328
3705.9056,0.003226
3706.8375,0.003444
3707.7693,0.003509
3708.7011,0.003059
3709.6330,0.002628
3710.5648,0.002389
3711.4967,0.001071
3712.4285,0.001928
3713.3603,0.003032
3714.2922,0.002560
3715.2240,0.001594
3716.1558,0.002250
3717.0877,0.002447
3718.0195,0.001765
3718.9513,0.001525
3719.8832,0.002349
3720.8150,0.003661
3721.7468,0.002503
3722.6787,0.000242
3723.6105,-0.000372
3724.5423,0.001199
3725.4742,0.002682
3726.4060,0.001860
3727.3378,0.001001
3728.2697,0.000727
3729.2015,0.000426
3730.1333,0.000610
3731.0652,0.000969
3731.9970,0.000844
3732.9288,0.001535
3733.8607,0.000989
3734.7925,0.001812
3735.7243,0.003266
3736.6562,0.000657
3737.5880,-0.001779
3738.5199,-0.000381
3739.4517,0.001954
3740.3835,0.000976
3741.3154,-0.000066
3742.2472,0.000033
3743.1790,0.000882
3744.1109,0.001022
3745.0427,-0.000760
3745.9745,-0.001603
3746.9064,-0.001281
3747.8382,-0.001769
3748.7700,-0.000443
3749.7019,-0.000028
3750.6337,-0.000464
3751.5655,-0.001689
3752.4974,-0.000746
3753.4292,0.001274
3754.3610,0.001441
3755.2929,0.000284
3756.2247,-0.000349
3757.1565,0.000641
3758.0884,0.001250
3759.0202,-0.000270
3759.9520,-0.001506
3760.8839,-0.001426
3761.8157,-0.000858
3762.7475,-0.000070
3763.6794,0.001218
3764.6112,0.002066
3765.5431,0.002095
3766.4749,0.001342
3767.4067,0.001092
3768.3386,0.001466
3769.2704,0.002007
3770.2022,0.001363
3771.1341,0.000467
3772.0659,0.000353
3772.9977,0.000285
3773.9296,0.000585
3774.8614,0.000125
3775.7932,0.000489
3776.7251,0.001065
3777.6569,0.001077
3778.5887,0.001757
3779.5206,0.001349
3780.4524,-0.000409
3781.3842,-0.000880
3782.3161,-0.000224
3783.2479,0.000999
3784.1797,0.001840
3785.1116,0.001686
3786.0434,0.000824
3786.9752,-0.000397
3787.9071,-0.000687
3788.8389,0.000356
3789.7707,0.001186
3790.7026,0.001141
3791.6344,0.001211
3792.5662,0.001706
3793.4981,0.001368
3794.4299,0.001134
3795.3618,0.000990
3796.2936,0.000119
3797.2254,0.000269
3798.1573,0.000468
3799.0891,-0.000266
3800.0209,-0.000612
3800.9528,0.000575
3801.8846,0.000439
3802.8164,-0.000319
3803.7483,-0.000300
3804.6801,-0.001191
3805.6119,-0.001199
3806.5438,-0.000327
3807.4756,0.000206
3808.4074,0.000406
3809.3393,0.000537
3810.2711,0.000568
3811.2029,0.000211
3812.1348,-0.000335
3813.0666,-0.000283
3813.9984,-0.000180
3814.9303,-0.000344
3815.8621,0.000225
3816.7939,0.001237
3817.7258,0.000960
3818.6576,-0.000761
3819.5894,-0.001454
3820.5213,-0.000024
3821.4531,0.001144
3822.3850,0.000528
3823.3168,-0.000857
3824.2486,-0.001837
3825.1805,0.000183
3826.1123,0.001888
3827.0441,0.000988
3827.9760,0.000062
3828.9078,0.001066
3829.8396,0.001329
3830.7715,-0.000010
3831.7033,-0.000559
3832.6351,-0.001044
3833.5670,-0.000644
3834.4988,0.000238
3835.4306,-0.000059
3836.3625,-0.000988
3837.2943,-0.002019
3838.2261,-0.002094
3839.1580,-0.002200
3840.0898,-0.000581
3841.0216,0.000896
3841.9535,0.000719
3842.8853,0.001392
3843.8171,0.001437
3844.7490,0.000374
3845.6808,0.000231
3846.6126,0.000599
3847.5445,0.000129
3848.4763,-0.000067
3849.4082,0.000381
3850.3400,-0.000631
3851.2718,-0.001991
3852.2037,-0.001450
3853.1355,-0.000047
3854.0673,-0.000073
3854.9992,-0.001687
3855.9310,-0.001894
3856.8628,-0.000101
3857.7947,-0.000099
3858.7265,0.000004
3859.6583,0.000757
3860.5902,0.001157
3861.5220,0.000696
3862.4538,0.000103
3863.3857,0.000471
3864.3175,0.000556
3865.2493,0.000080
3866.1812,0.000090
3867.1130,-0.001033
3868.0448,-0.000702
3868.9767,0.000316
3869.9085,-0.000260
3870.8403,0.000526
3871.7722,0.001051
3872.7040,0.000006
3873.6358,-0.002114
3874.5677,-0.002131
3875.4995,-0.000755
3876.4314,0.000294
3877.3632,0.000308
3878.2950,0.000064
3879.2269,0.000647
3880.1587,0.000805
3881.0905,-0.000062
3882.0224,0.000478
3882.9542,0.001022
3883.8860,-0.000148
3884.8179,0.001204
3885.7497,0.001975
3886.6815,0.000848
3887.6134,0.000780
3888.5452,0.000937
3889.4770,0.001076
3890.4089,0.001046
3891.3407,0.000014
3892.2725,-0.000085
3893.2044,0.000277
3894.1362,0.000000
3895.0680,0.001836
3895.9999,0.001996
3896.9317,0.000855
3897.8635,0.000844
3898.7954,0.000476
3899.7272,-0.001108
3900.6590,-0.000739
3901.5909,0.000126
3902.5227,-0.000654
3903.4546,-0.001243
3904.3864,-0.002117
3905.3182,-0.001349
3906.2501,0.000150
3907.1819,-0.000730
3908.1137,-0.000611
3909.0456,0.000761
3909.9774,0.000978
3910.9092,0.000638
3911.8411,0.000828
3912.7729,0.000247
3913.7047,-0.000401
3914.6366,0.000246
3915.5684,0.000661
3916.5002,0.000445
3917.4321,0.000744
3918.3639,0.000650
3919.2957,-0.000300
3920.2276,-0.000855
3921.1594,-0.000411
3922.0912,0.000458
3923.0231,0.001627
3923.9549,0.001284
3924.8867,-0.000205
3925.8186,-0.000493
3926.7504,-0.000340
3927.6822,-0.000317
3928.6141,-0.000446
3929.5459,-0.000624
3930.4777,0.000641
3931.4096,0.001096
3932.3414,-0.000225
3933.2733,-0.001184
3934.2051,-0.001153
3935.1369,-0.000668
3936.0688,0.000069
3937.0006,0.001313
3937.9324,0.001728
3938.8643,0.000999
3939.7961,0.000940
3940.7279,0.001982
3941.6598,0.001586
3942.5916,0.000231
3943.5234,-0.000007
3944.4553,0.000301
3945.3871,0.001213
3946.3189,0.001915
3947.2508,0.001496
3948.1826,0.001026
3949.1144,0.000942
3950.0463,0.000641
3950.9781,0.001132
3951.9099,0.002404
3952.8418,0.002528
3953.7736,0.001556
3954.7054,0.001486
3955.6373,0.000880
3956.5691,-0.000276
3957.5009,-0.000271
3958.4328,0.000356
3959.3646,0.000446
3960.2965,0.001222
3961.2283,0.001736
3962.1601,0.000524
3963.0920,-0.000063
3964.0238,0.000344
3964.9556,-0.000075
3965.8875,-0.000601
3966.8193,-0.000425
3967.7511,-0.000288
3968.6830,-0.000167
3969.6148,0.000406
3970.5466,0.001405
3971.4785,0.002008
3972.4103,0.001662
3973.3421,0.001005
3974.2740,0.000300
3975.2058,-0.000564
3976.1376,-0.000608
3977.0695,0.000770
3978.0013,0.001373
3978.9331,0.001056
3979.8650,0.001206
3980.7968,0.000901
3981.7286,0.000103
3982.6605,0.000118
3983.5923,-0.000022
3984.5241,-0.000769
3985.4560,-0.000301
3986.3878,0.001218
3987.3197,0.001378
3988.2515,0.001094
3989.1833,0.001126
3990.1152,0.000364
3991.0470,0.001156
3991.9788,0.002213
3992.9107,0.001268
3993.8425,-0.000015
3994.7743,-0.000035
3995.7062,0.001112
3996.6380,0.002114
3997.5698,0.001801
3998.5017,0.000715
3999.4335,0.000369
4000.3653,0.000357
