Wavenumber,Intensity
650.4205,0.279164
651.3523,0.288779
652.2841,0.306357
653.2160,0.306584
654.1478,0.299431
655.0796,0.306707
656.0115,0.307858
656.9433,0.305899
657.8751,0.296753
658.8070,0.294065
659.7388,0.294349
660.6706,0.289794
661.6025,0.288212
662.5343,0.290494
663.4661,0.289411
664.3980,0.288005
665.3298,0.285206
666.2616,0.278340
667.1935,0.270784
668.1253,0.280032
669.0571,0.292363
669.9890,0.288421
670.9208,0.287546
671.8526,0.286915
672.7845,0.279179
673.7163,0.278170
674.6481,0.279627
675.5800,0.281137
676.5118,0.276490
677.4437,0.277080
678.3755,0.279324
679.3073,0.276891
680.2392,0.275687
681.1710,0.272764
682.1028,0.267437
683.0347,0.269969
683.9665,0.272225
684.8983,0.274570
685.8302,0.273007
686.7620,0.269733
687.6938,0.266457
688.6257,0.263454
689.5575,0.258805
690.4893,0.262128
691.4212,0.266708
692.3530,0.267325
693.2848,0.262859
694.2167,0.261784
695.1485,0.259708
696.0803,0.258624
697.0122,0.258576
697.9440,0.258046
698.8758,0.253396
699.8077,0.251262
700.7395,0.253164
701.6713,0.252231
702.6032,0.248547
703.5350,0.251416
704.4669,0.249955
705.3987,0.247440
706.3305,0.246137
707.2624,0.244690
708.1942,0.245251
709.1260,0.243704
710.0579,0.240638
710.9897,0.242909
711.9215,0.241364
712.8534,0.237915
713.7852,0.237064
714.7170,0.239429
715.6489,0.236259
716.5807,0.234369
717.5125,0.232748
718.4444,0.232376
719.3762,0.233384
720.3080,0.233912
721.2399,0.232636
722.1717,0.230308
723.1035,0.228278
724.0354,0.228309
724.9672,0.226854
725.8990,0.226766
726.8309,0.227025
727.7627,0.225074
728.6945,0.222428
729.6264,0.223188
730.5582,0.223068
731.4901,0.221945
732.4219,0.217764
733.3537,0.216489
734.2856,0.218383
735.2174,0.217770
736.1492,0.213182
737.0811,0.211502
738.0129,0.211674
738.9447,0.212308
739.8766,0.211634
740.8084,0.210824
741.7402,0.208917
742.6721,0.208577
743.6039,0.207938
744.5357,0.207766
745.4676,0.206792
746.3994,0.204421
747.3312,0.202244
748.2631,0.200851
749.1949,0.199197
750.1267,0.198932
751.0586,0.197764
751.9904,0.196700
752.9222,0.195533
753.8541,0.194067
754.7859,0.191260
755.7177,0.191383
756.6496,0.192842
757.5814,0.193492
758.5132,0.191649
759.4451,0.189166
760.3769,0.186724
761.3088,0.187292
762.2406,0.186530
763.1724,0.185322
764.1043,0.184771
765.0361,0.184088
765.9679,0.182096
766.8998,0.179632
767.8316,0.178596
768.7634,0.178574
769.6953,0.177588
770.6271,0.176089
771.5589,0.175449
772.4908,0.176435
773.4226,0.175843
774.3544,0.174267
775.2863,0.171665
776.2181,0.171179
777.1499,0.170981
778.0818,0.169948
779.0136,0.169273
779.9454,0.167433
780.8773,0.165482
781.8091,0.166426
782.7409,0.165963
783.6728,0.163420
784.6046,0.161613
785.5364,0.160802
786.4683,0.160490
787.4001,0.160219
788.3320,0.159040
789.2638,0.159033
790.1956,0.159471
791.1275,0.157325
792.0593,0.155336
792.9911,0.155278
793.9230,0.154170
794.8548,0.153476
795.7866,0.152385
796.7185,0.152521
797.6503,0.152421
798.5821,0.151262
799.5140,0.150856
800.4458,0.150493
801.3776,0.149542
802.3095,0.148435
803.2413,0.148627
804.1731,0.149368
805.1050,0.148821
806.0368,0.147291
806.9686,0.146723
807.9005,0.144527
808.8323,0.141558
809.7641,0.141073
810.6960,0.140016
811.6278,0.137412
812.5596,0.135497
813.4915,0.134642
814.4233,0.133531
815.3552,0.131716
816.2870,0.130342
817.2188,0.130003
818.1507,0.128337
819.0825,0.125705
820.0143,0.124315
820.9462,0.124598
821.8780,0.123552
822.8098,0.121749
823.7417,0.120381
824.6735,0.119650
825.6053,0.119235
826.5372,0.118668
827.4690,0.117724
828.4008,0.116482
829.3327,0.114826
830.2645,0.115098
831.1963,0.115590
832.1282,0.114636
833.0600,0.113148
833.9918,0.112420
834.9237,0.112167
835.8555,0.111637
836.7873,0.110444
837.7192,0.108958
838.6510,0.107798
839.5828,0.107847
840.5147,0.107339
841.4465,0.106341
842.3784,0.106324
843.3102,0.105855
844.2420,0.104762
845.1739,0.103877
846.1057,0.102891
847.0375,0.102183
847.9694,0.101375
848.9012,0.101307
849.8330,0.101472
850.7649,0.100626
851.6967,0.099730
852.6285,0.099505
853.5604,0.099466
854.4922,0.099715
855.4240,0.099464
856.3559,0.099066
857.2877,0.098982
858.2195,0.098401
859.1514,0.098244
860.0832,0.099599
861.0150,0.100360
861.9469,0.100133
862.8787,0.100909
863.8105,0.102769
864.7424,0.104314
865.6742,0.105798
866.6060,0.108298
867.5379,0.111731
868.4697,0.115856
869.4016,0.120891
870.3334,0.126770
871.2652,0.133960
872.1971,0.142745
873.1289,0.153115
874.0607,0.164585
874.9926,0.175956
875.9244,0.186885
876.8562,0.196600
877.7881,0.202602
878.7199,0.203939
879.6517,0.201481
880.5836,0.195288
881.5154,0.185045
882.4472,0.172813
883.3791,0.159858
884.3109,0.147420
885.2427,0.135533
886.1746,0.124942
887.1064,0.116045
888.0382,0.107956
888.9701,0.100508
889.9019,0.094181
890.8337,0.088667
891.7656,0.084747
892.6974,0.081256
893.6292,0.077913
894.5611,0.075443
895.4929,0.073657
896.4247,0.072325
897.3566,0.070700
898.2884,0.069017
899.2203,0.067827
900.1521,0.066585
901.0839,0.065742
902.0158,0.064838
902.9476,0.064018
903.8794,0.063412
904.8113,0.062591
905.7431,0.061610
906.6749,0.061255
907.6068,0.060164
908.5386,0.059335
909.4704,0.059146
910.4023,0.058759
911.3341,0.057944
912.2659,0.057513
913.1978,0.056983
914.1296,0.056432
915.0614,0.056135
915.9933,0.055695
916.9251,0.054989
917.8569,0.054712
918.7888,0.054695
919.7206,0.054244
920.6524,0.053677
921.5843,0.053694
922.5161,0.053554
923.4479,0.053032
924.3798,0.052265
925.3116,0.052066
926.2435,0.051897
927.1753,0.051489
928.1071,0.051219
929.0390,0.050960
929.9708,0.050549
930.9026,0.050388
931.8345,0.050188
932.7663,0.049735
933.6981,0.049323
934.6300,0.049060
935.5618,0.049092
936.4936,0.049207
937.4255,0.049139
938.3573,0.048868
939.2891,0.048628
940.2210,0.048682
941.1528,0.048448
942.0846,0.048079
943.0165,0.047833
943.9483,0.047685
944.8801,0.047529
945.8120,0.047301
946.7438,0.047172
947.6756,0.046805
948.6075,0.046780
949.5393,0.047092
950.4711,0.046658
951.4030,0.046285
952.3348,0.046693
953.2667,0.046540
954.1985,0.046244
955.1303,0.046274
956.0622,0.046509
956.9940,0.046487
957.9258,0.046099
958.8577,0.045697
959.7895,0.045417
960.7213,0.045707
961.6532,0.046103
962.5850,0.046137
963.5168,0.046068
964.4487,0.046095
965.3805,0.045882
966.3123,0.045508
967.2442,0.045375
968.1760,0.045719
969.1078,0.046001
970.0397,0.045691
970.9715,0.045570
971.9033,0.045787
972.8352,0.045936
973.7670,0.045994
974.6988,0.046009
975.6307,0.046020
976.5625,0.045932
977.4943,0.046003
978.4262,0.046100
979.3580,0.046456
980.2899,0.046705
981.2217,0.046674
982.1535,0.046463
983.0854,0.046578
984.0172,0.046952
984.9490,0.047100
985.8809,0.047253
986.8127,0.047567
987.7445,0.047780
988.6764,0.048063
989.6082,0.048153
990.5400,0.048338
991.4719,0.048751
992.4037,0.048954
993.3355,0.049148
994.2674,0.049638
995.1992,0.050125
996.1310,0.050492
997.0629,0.050839
997.9947,0.051012
998.9265,0.051094
999.8584,0.051750
1000.7902,0.052674
1001.7220,0.053161
1002.6539,0.053707
1003.5857,0.054463
1004.5175,0.055388
1005.4494,0.056289
1006.3812,0.056859
1007.3131,0.057608
1008.2449,0.058746
1009.1767,0.059932
1010.1086,0.060917
1011.0404,0.062144
1011.9722,0.063446
1012.9041,0.064757
1013.8359,0.066417
1014.7677,0.068129
1015.6996,0.070131
1016.6314,0.072234
1017.5632,0.074181
1018.4951,0.076668
1019.4269,0.079707
1020.3587,0.082751
1021.2906,0.085988
1022.2224,0.089762
1023.1542,0.093859
1024.0861,0.098402
1025.0179,0.103825
1025.9497,0.109987
1026.8816,0.116339
1027.8134,0.123346
1028.7452,0.131485
1029.6771,0.140554
1030.6089,0.150565
1031.5407,0.162011
1032.4726,0.175385
1033.4044,0.190332
1034.3362,0.207040
1035.2681,0.225706
1036.1999,0.246182
1037.1318,0.268883
1038.0636,0.293156
1038.9954,0.317990
1039.9273,0.342113
1040.8591,0.364070
1041.7909,0.382301
1042.7228,0.394978
1043.6546,0.401676
1044.5864,0.402366
1045.5183,0.395953
1046.4501,0.383250
1047.3819,0.366410
1048.3138,0.346440
1049.2456,0.324223
1050.1774,0.300305
1051.1093,0.275768
1052.0411,0.251771
1052.9729,0.228650
1053.9048,0.206497
1054.8366,0.185941
1055.7684,0.167315
1056.7003,0.150434
1057.6321,0.135938
1058.5639,0.124520
1059.4958,0.115368
1060.4276,0.107705
1061.3594,0.101644
1062.2913,0.097274
1063.2231,0.094230
1064.1550,0.092171
1065.0868,0.090926
1066.0186,0.090496
1066.9505,0.090725
1067.8823,0.091396
1068.8141,0.092782
1069.7460,0.094816
1070.6778,0.097219
1071.6096,0.100075
1072.5415,0.103281
1073.4733,0.106979
1074.4051,0.111441
1075.3370,0.116206
1076.2688,0.121136
1077.2006,0.126297
1078.1325,0.131663
1079.0643,0.137148
1079.9961,0.142558
1080.9280,0.147754
1081.8598,0.152793
1082.7916,0.157347
1083.7235,0.161185
1084.6553,0.164138
1085.5871,0.165754
1086.5190,0.165913
1087.4508,0.164779
1088.3826,0.162475
1089.3145,0.158744
1090.2463,0.153388
1091.1782,0.147121
1092.1100,0.140120
1093.0418,0.131986
1093.9737,0.123663
1094.9055,0.115694
1095.8373,0.107520
1096.7692,0.099569
1097.7010,0.092701
1098.6328,0.086297
1099.5647,0.080217
1100.4965,0.074783
1101.4283,0.069895
1102.3602,0.065862
1103.2920,0.062453
1104.2238,0.059317
1105.1557,0.056680
1106.0875,0.054443
1107.0193,0.052626
1107.9512,0.051162
1108.8830,0.049787
1109.8148,0.048545
1110.7467,0.047432
1111.6785,0.046430
1112.6103,0.045546
1113.5422,0.044842
1114.4740,0.044384
1115.4058,0.043855
1116.3377,0.043342
1117.2695,0.043118
1118.2014,0.042764
1119.1332,0.042341
1120.0650,0.042172
1120.9969,0.042094
1121.9287,0.041888
1122.8605,0.041611
1123.7924,0.041509
1124.7242,0.041563
1125.6560,0.041651
1126.5879,0.041485
1127.5197,0.041159
1128.4515,0.041053
1129.3834,0.040914
1130.3152,0.040518
1131.2470,0.040233
1132.1789,0.040037
1133.1107,0.039679
1134.0425,0.039552
1134.9744,0.039462
1135.9062,0.039102
1136.8380,0.038881
1137.7699,0.038614
1138.7017,0.038401
1139.6335,0.038322
1140.5654,0.037888
1141.4972,0.037487
1142.4290,0.037409
1143.3609,0.037490
1144.2927,0.037692
1145.2246,0.037733
1146.1564,0.037319
1147.0882,0.036943
1148.0201,0.036992
1148.9519,0.037076
1149.8837,0.036985
1150.8156,0.036803
1151.7474,0.036835
1152.6792,0.037024
1153.6111,0.037089
1154.5429,0.036929
1155.4747,0.036610
1156.4066,0.036443
1157.3384,0.036368
1158.2702,0.036102
1159.2021,0.035756
1160.1339,0.035564
1161.0657,0.035413
1161.9976,0.034941
1162.9294,0.034497
1163.8612,0.034147
1164.7931,0.033672
1165.7249,0.033358
1166.6567,0.033088
1167.5886,0.032894
1168.5204,0.032830
1169.4522,0.032629
1170.3841,0.032309
1171.3159,0.032080
1172.2477,0.031961
1173.1796,0.031947
1174.1114,0.032150
1175.0433,0.032290
1175.9751,0.032025
1176.9069,0.031719
1177.8388,0.031806
1178.7706,0.032007
1179.7024,0.032099
1180.6343,0.031996
1181.5661,0.031724
1182.4979,0.031430
1183.4298,0.031303
1184.3616,0.031511
1185.2934,0.031600
1186.2253,0.031585
1187.1571,0.031684
1188.0889,0.031639
1189.0208,0.031683
1189.9526,0.031829
1190.8844,0.031813
1191.8163,0.031780
1192.7481,0.031580
1193.6799,0.031423
1194.6118,0.031493
1195.5436,0.031389
1196.4754,0.031455
1197.4073,0.031756
1198.3391,0.031852
1199.2709,0.031767
1200.2028,0.031799
1201.1346,0.031773
1202.0665,0.031803
1202.9983,0.032044
1203.9301,0.032134
1204.8620,0.032136
1205.7938,0.032136
1206.7256,0.032113
1207.6575,0.032100
1208.5893,0.032196
1209.5211,0.032480
1210.4530,0.032512
1211.3848,0.032265
1212.3166,0.032257
1213.2485,0.032486
1214.1803,0.032526
1215.1121,0.032417
1216.0440,0.032511
1216.9758,0.032501
1217.9076,0.032395
1218.8395,0.032629
1219.7713,0.032877
1220.7031,0.032941
1221.6350,0.033088
1222.5668,0.033266
1223.4986,0.033247
1224.4305,0.033147
1225.3623,0.033271
1226.2941,0.033457
1227.2260,0.033495
1228.1578,0.033594
1229.0897,0.033758
1230.0215,0.033934
1230.9533,0.033794
1231.8852,0.033725
1232.8170,0.034043
1233.7488,0.034224
1234.6807,0.034360
1235.6125,0.034580
1236.5443,0.034874
1237.4762,0.035037
1238.4080,0.034950
1239.3398,0.034991
1240.2717,0.035320
1241.2035,0.035833
1242.1353,0.036153
1243.0672,0.036226
1243.9990,0.036429
1244.9308,0.036757
1245.8627,0.036860
1246.7945,0.036939
1247.7263,0.037105
1248.6582,0.037392
1249.5900,0.037666
1250.5218,0.037916
1251.4537,0.038315
1252.3855,0.038648
1253.3173,0.039051
1254.2492,0.039510
1255.1810,0.040130
1256.1129,0.040745
1257.0447,0.041173
1257.9765,0.041628
1258.9084,0.042197
1259.8402,0.043036
1260.7720,0.043858
1261.7039,0.044479
1262.6357,0.045259
1263.5675,0.045992
1264.4994,0.047103
1265.4312,0.048293
1266.3630,0.049009
1267.2949,0.050008
1268.2267,0.051424
1269.1585,0.052512
1270.0904,0.053441
1271.0222,0.054200
1271.9540,0.054861
1272.8859,0.055532
1273.8177,0.055859
1274.7495,0.055748
1275.6814,0.055513
1276.6132,0.055052
1277.5450,0.054350
1278.4769,0.053619
1279.4087,0.053057
1280.3405,0.052415
1281.2724,0.051650
1282.2042,0.050876
1283.1361,0.050115
1284.0679,0.049418
1284.9997,0.048970
1285.9316,0.048668
1286.8634,0.048342
1287.7952,0.048266
1288.7271,0.048426
1289.6589,0.048442
1290.5907,0.048388
1291.5226,0.048539
1292.4544,0.048532
1293.3862,0.048731
1294.3181,0.049326
1295.2499,0.049721
1296.1817,0.049807
1297.1136,0.050003
1298.0454,0.050620
1298.9772,0.051278
1299.9091,0.051650
1300.8409,0.051973
1301.7727,0.052582
1302.7046,0.053145
1303.6364,0.053517
1304.5682,0.054032
1305.5001,0.054700
1306.4319,0.055263
1307.3637,0.055768
1308.2956,0.056400
1309.2274,0.057002
1310.1592,0.057181
1311.0911,0.057560
1312.0229,0.058134
1312.9548,0.058600
1313.8866,0.058867
1314.8184,0.059229
1315.7503,0.059687
1316.6821,0.059963
1317.6139,0.060505
1318.5458,0.060959
1319.4776,0.061163
1320.4094,0.061495
1321.3413,0.061759
1322.2731,0.061736
1323.2049,0.061807
1324.1368,0.061885
1325.0686,0.061798
1326.0004,0.061718
1326.9323,0.061652
1327.8641,0.061817
1328.7959,0.061833
1329.7278,0.061545
1330.6596,0.061296
1331.5914,0.061182
1332.5233,0.060684
1333.4551,0.060220
1334.3869,0.059907
1335.3188,0.059293
1336.2506,0.058739
1337.1824,0.058254
1338.1143,0.058017
1339.0461,0.057971
1339.9780,0.058004
1340.9098,0.057972
1341.8416,0.056981
1342.7735,0.055684
1343.7053,0.054892
1344.6371,0.054468
1345.5690,0.054189
1346.5008,0.053869
1347.4326,0.053213
1348.3645,0.052456
1349.2963,0.052089
1350.2281,0.051923
1351.1600,0.051570
1352.0918,0.051063
1353.0236,0.051247
1353.9555,0.051380
1354.8873,0.051003
1355.8191,0.050850
1356.7510,0.050733
1357.6828,0.050519
1358.6146,0.050590
1359.5465,0.050688
1360.4783,0.050682
1361.4101,0.050772
1362.3420,0.051398
1363.2738,0.052387
1364.2056,0.053249
1365.1375,0.053323
1366.0693,0.053223
1367.0012,0.054112
1367.9330,0.055649
1368.8648,0.057470
1369.7967,0.059474
1370.7285,0.061041
1371.6603,0.062724
1372.5922,0.065187
1373.5240,0.067736
1374.4558,0.070596
1375.3877,0.073217
1376.3195,0.074432
1377.2513,0.075097
1378.1832,0.076356
1379.1150,0.077799
1380.0468,0.078867
1380.9787,0.079327
1381.9105,0.079425
1382.8423,0.079460
1383.7742,0.079427
1384.7060,0.079052
1385.6378,0.078222
1386.5697,0.077509
1387.5015,0.077341
1388.4333,0.076785
1389.3652,0.075257
1390.2970,0.073387
1391.2288,0.071854
1392.1607,0.070778
1393.0925,0.069614
1394.0244,0.068998
1394.9562,0.069692
1395.8880,0.070293
1396.8199,0.069649
1397.7517,0.069349
1398.6835,0.069921
1399.6154,0.070651
1400.5472,0.070855
1401.4790,0.070279
1402.4109,0.069888
1403.3427,0.069998
1404.2745,0.070338
1405.2064,0.071129
1406.1382,0.072207
1407.0700,0.072091
1408.0019,0.071733
1408.9337,0.072283
1409.8655,0.072646
1410.7974,0.072395
1411.7292,0.072548
1412.6610,0.072843
1413.5929,0.072743
1414.5247,0.072621
1415.4565,0.072199
1416.3884,0.071659
1417.3202,0.071641
1418.2520,0.072130
1419.1839,0.073239
1420.1157,0.074535
1421.0476,0.073920
1421.9794,0.071869
1422.9112,0.070949
1423.8431,0.070983
1424.7749,0.071247
1425.7067,0.070384
1426.6386,0.069084
1427.5704,0.068347
1428.5022,0.067885
1429.4341,0.067522
1430.3659,0.067348
1431.2977,0.066694
1432.2296,0.065441
1433.1614,0.064467
1434.0932,0.063935
1435.0251,0.062855
1435.9569,0.062211
1436.8887,0.063330
1437.8206,0.064769
1438.7524,0.063543
1439.6842,0.061997
1440.6161,0.061589
1441.5479,0.061636
1442.4797,0.061688
1443.4116,0.061977
1444.3434,0.062618
1445.2752,0.063486
1446.2071,0.064359
1447.1389,0.065279
1448.0707,0.066555
1449.0026,0.068256
1449.9344,0.068780
1450.8663,0.068381
1451.7981,0.068413
1452.7299,0.068620
1453.6618,0.068168
1454.5936,0.067207
1455.5254,0.066239
1456.4573,0.065951
1457.3891,0.066137
1458.3209,0.064904
1459.2528,0.062272
1460.1846,0.059481
1461.1164,0.056426
1462.0483,0.054133
1462.9801,0.052359
1463.9119,0.050666
1464.8438,0.049432
1465.7756,0.048383
1466.7074,0.046437
1467.6393,0.045050
1468.5711,0.044246
1469.5029,0.043317
1470.4348,0.042203
1471.3666,0.041809
1472.2984,0.042046
1473.2303,0.042727
1474.1621,0.042057
1475.0939,0.040857
1476.0258,0.040609
1476.9576,0.041143
1477.8895,0.041632
1478.8213,0.041444
1479.7531,0.041532
1480.6850,0.041831
1481.6168,0.041893
1482.5486,0.041396
1483.4805,0.041113
1484.4123,0.040901
1485.3441,0.040602
1486.2760,0.040211
1487.2078,0.039854
1488.1396,0.039504
1489.0715,0.038508
1490.0033,0.037363
1490.9351,0.037076
1491.8670,0.036269
1492.7988,0.034511
1493.7306,0.033498
1494.6625,0.032862
1495.5943,0.032595
1496.5261,0.032807
1497.4580,0.032470
1498.3898,0.031687
1499.3216,0.031503
1500.2535,0.031169
1501.1853,0.030551
1502.1171,0.029993
1503.0490,0.029575
1503.9808,0.029057
1504.9127,0.028750
1505.8445,0.029316
1506.7763,0.030404
1507.7082,0.030092
1508.6400,0.029251
1509.5718,0.029031
1510.5037,0.029097
1511.4355,0.028962
1512.3673,0.028869
1513.2992,0.028589
1514.2310,0.028063
1515.1628,0.027750
1516.0947,0.028463
1517.0265,0.029115
1517.9583,0.028741
1518.8902,0.027615
1519.8220,0.027070
1520.7538,0.027906
1521.6857,0.029275
1522.6175,0.028609
1523.5493,0.027845
1524.4812,0.027649
1525.4130,0.027895
1526.3448,0.028137
1527.2767,0.028050
1528.2085,0.027420
1529.1403,0.027150
1530.0722,0.027067
1531.0040,0.027023
1531.9359,0.027019
1532.8677,0.027414
1533.7995,0.027878
1534.7314,0.028028
1535.6632,0.027290
1536.5950,0.026694
1537.5269,0.026723
1538.4587,0.026821
1539.3905,0.028259
1540.3224,0.029790
1541.2542,0.027811
1542.1860,0.026662
1543.1179,0.026896
1544.0497,0.026616
1544.9815,0.026693
1545.9134,0.028002
1546.8452,0.027891
1547.7770,0.026737
1548.7089,0.026487
1549.6407,0.026900
1550.5725,0.027657
1551.5044,0.027805
1552.4362,0.027228
1553.3680,0.027007
1554.2999,0.027096
1555.2317,0.027469
1556.1635,0.026671
1557.0954,0.026200
1558.0272,0.027732
1558.9591,0.030466
1559.8909,0.031256
1560.8227,0.029697
1561.7546,0.028288
1562.6864,0.027384
1563.6182,0.027667
1564.5501,0.028120
1565.4819,0.028137
1566.4137,0.028430
1567.3456,0.028047
1568.2774,0.028124
1569.2092,0.028681
1570.1411,0.029592
1571.0729,0.029848
1572.0047,0.028932
1572.9366,0.029000
1573.8684,0.029514
1574.8002,0.029604
1575.7321,0.030025
1576.6639,0.030828
1577.5957,0.031669
1578.5276,0.030994
1579.4594,0.030899
1580.3912,0.031126
1581.3231,0.031119
1582.2549,0.031602
1583.1867,0.032070
1584.1186,0.032196
1585.0504,0.032636
1585.9822,0.032798
1586.9141,0.032906
1587.8459,0.033491
1588.7778,0.034129
1589.7096,0.034550
1590.6414,0.034984
1591.5733,0.035468
1592.5051,0.035638
1593.4369,0.035682
1594.3688,0.036439
1595.3006,0.037363
1596.2324,0.037828
1597.1643,0.038116
1598.0961,0.038676
1599.0279,0.039644
1599.9598,0.040602
1600.8916,0.041306
1601.8234,0.042130
1602.7553,0.043169
1603.6871,0.043880
1604.6189,0.044722
1605.5508,0.045432
1606.4826,0.045870
1607.4144,0.046406
1608.3463,0.047205
1609.2781,0.048606
1610.2099,0.050377
1611.1418,0.051716
1612.0736,0.052458
1613.0054,0.053177
1613.9373,0.053692
1614.8691,0.054430
1615.8010,0.055710
1616.7328,0.058500
1617.6646,0.063163
1618.5965,0.064064
1619.5283,0.062361
1620.4601,0.063283
1621.3920,0.065478
1622.3238,0.066720
1623.2556,0.068195
1624.1875,0.071782
1625.1193,0.073580
1626.0511,0.073699
1626.9830,0.074829
1627.9148,0.076654
1628.8466,0.078757
1629.7785,0.080000
1630.7103,0.079819
1631.6421,0.080086
1632.5740,0.081092
1633.5058,0.082548
1634.4376,0.083362
1635.3695,0.085486
1636.3013,0.089950
1637.2331,0.091913
1638.1650,0.091426
1639.0968,0.091044
1640.0286,0.090138
1640.9605,0.089686
1641.8923,0.089637
1642.8242,0.089785
1643.7560,0.089919
1644.6878,0.089842
1645.6197,0.089808
1646.5515,0.091666
1647.4833,0.093831
1648.4152,0.092534
1649.3470,0.090965
1650.2788,0.088252
1651.2107,0.086250
1652.1425,0.085913
1653.0743,0.087763
1654.0062,0.093942
1654.9380,0.095815
1655.8698,0.091453
1656.8017,0.087815
1657.7335,0.086245
1658.6653,0.084448
1659.5972,0.082949
1660.5290,0.082290
1661.4608,0.081160
1662.3927,0.080141
1663.3245,0.080425
1664.2563,0.080541
1665.1882,0.078471
1666.1200,0.076171
1667.0518,0.074774
1667.9837,0.073467
1668.9155,0.072573
1669.8474,0.072690
1670.7792,0.071524
1671.7110,0.069506
1672.6429,0.068643
1673.5747,0.066956
1674.5065,0.065203
1675.4384,0.064982
1676.3702,0.064932
1677.3020,0.062614
1678.2339,0.060430
1679.1657,0.059309
1680.0975,0.058570
1681.0294,0.057976
1681.9612,0.056625
1682.8930,0.054633
1683.8249,0.054022
1684.7567,0.054237
1685.6885,0.053704
1686.6204,0.051328
1687.5522,0.048690
1688.4840,0.047659
1689.4159,0.047479
1690.3477,0.046662
1691.2795,0.045584
1692.2114,0.044243
1693.1432,0.042737
1694.0750,0.041522
1695.0069,0.040819
1695.9387,0.040778
1696.8706,0.040639
1697.8024,0.038250
1698.7342,0.035935
1699.6661,0.035152
1700.5979,0.036313
1701.5297,0.036734
1702.4616,0.033435
1703.3934,0.032330
1704.3252,0.032606
1705.2571,0.032327
1706.1889,0.031260
1707.1207,0.030575
1708.0526,0.029839
1708.9844,0.028855
1709.9162,0.028360
1710.8481,0.027734
1711.7799,0.027011
1712.7117,0.026439
1713.6436,0.026409
1714.5754,0.026378
1715.5072,0.025932
1716.4391,0.024946
1717.3709,0.023688
1718.3027,0.023386
1719.2346,0.022978
1720.1664,0.021686
1721.0982,0.021042
1722.0301,0.020970
1722.9619,0.020995
1723.8937,0.020968
1724.8256,0.020739
1725.7574,0.020179
1726.6893,0.019751
1727.6211,0.019550
1728.5529,0.019307
1729.4848,0.019081
1730.4166,0.018834
1731.3484,0.018221
1732.2803,0.017357
1733.2121,0.017181
1734.1439,0.017418
1735.0758,0.017413
1736.0076,0.016209
1736.9394,0.015393
1737.8713,0.015785
1738.8031,0.016346
1739.7349,0.016651
1740.6668,0.016774
1741.5986,0.015850
1742.5304,0.015096
1743.4623,0.015367
1744.3941,0.015290
1745.3259,0.014750
1746.2578,0.014468
1747.1896,0.014624
1748.1214,0.015090
1749.0533,0.015176
1749.9851,0.014281
1750.9169,0.013684
1751.8488,0.013359
1752.7806,0.012839
1753.7125,0.012218
1754.6443,0.012660
1755.5761,0.013281
1756.5080,0.013325
1757.4398,0.012946
1758.3716,0.012768
1759.3035,0.012498
1760.2353,0.012204
1761.1671,0.012243
1762.0990,0.012504
1763.0308,0.012294
1763.9626,0.011575
1764.8945,0.011584
1765.8263,0.011448
1766.7581,0.011229
1767.6900,0.011503
1768.6218,0.011450
1769.5536,0.011267
1770.4855,0.010767
1771.4173,0.010524
1772.3491,0.010707
1773.2810,0.010266
1774.2128,0.009749
1775.1446,0.009833
1776.0765,0.010008
1777.0083,0.009941
1777.9401,0.009668
1778.8720,0.010001
1779.8038,0.010039
1780.7357,0.009643
1781.6675,0.009670
1782.5993,0.009685
1783.5312,0.009363
1784.4630,0.009381
1785.3948,0.009644
1786.3267,0.009734
1787.2585,0.009313
1788.1903,0.009046
1789.1222,0.009025
1790.0540,0.008943
1790.9858,0.008798
1791.9177,0.009236
1792.8495,0.008581
1793.7813,0.007720
1794.7132,0.008014
1795.6450,0.008265
1796.5768,0.008016
1797.5087,0.007787
1798.4405,0.007703
1799.3723,0.008033
1800.3042,0.008132
1801.2360,0.007627
1802.1678,0.007642
1803.0997,0.008071
1804.0315,0.008019
1804.9633,0.007569
1805.8952,0.007106
1806.8270,0.007100
1807.7589,0.007473
1808.6907,0.007995
1809.6225,0.007930
1810.5544,0.007468
1811.4862,0.007520
1812.4180,0.007474
1813.3499,0.007161
1814.2817,0.007198
1815.2135,0.007199
1816.1454,0.007274
1817.0772,0.007427
1818.0090,0.007572
1818.9409,0.007189
1819.8727,0.006659
1820.8045,0.006596
1821.7364,0.006588
1822.6682,0.006805
1823.6000,0.007308
1824.5319,0.007184
1825.4637,0.007162
1826.3955,0.006926
1827.3274,0.006276
1828.2592,0.006147
1829.1910,0.005978
1830.1229,0.005966
1831.0547,0.005926
1831.9865,0.005502
1832.9184,0.005370
1833.8502,0.005702
1834.7821,0.005954
1835.7139,0.005888
1836.6457,0.005950
1837.5776,0.005994
1838.5094,0.005826
1839.4412,0.006142
1840.3731,0.006049
1841.3049,0.005503
1842.2367,0.005923
1843.1686,0.006298
1844.1004,0.005902
1845.0322,0.006325
1845.9641,0.006148
1846.8959,0.005073
1847.8277,0.005261
1848.7596,0.005738
1849.6914,0.006019
1850.6232,0.005818
1851.5551,0.005780
1852.4869,0.005685
1853.4187,0.005281
1854.3506,0.005158
1855.2824,0.005106
1856.2142,0.004399
1857.1461,0.004922
1858.0779,0.005896
1859.0097,0.005651
1859.9416,0.005565
1860.8734,0.005793
1861.8052,0.005718
1862.7371,0.005570
1863.6689,0.005247
1864.6008,0.005313
1865.5326,0.005726
1866.4644,0.005949
1867.3963,0.005902
1868.3281,0.005951
1869.2599,0.005555
1870.1918,0.004556
1871.1236,0.004823
1872.0554,0.005075
1872.9873,0.004418
1873.9191,0.004056
1874.8509,0.003894
1875.7828,0.004424
1876.7146,0.005353
1877.6464,0.005758
1878.5783,0.005365
1879.5101,0.005541
1880.4419,0.006020
1881.3738,0.005628
1882.3056,0.005513
1883.2374,0.005292
1884.1693,0.004664
1885.1011,0.005315
1886.0329,0.005912
1886.9648,0.005165
1887.8966,0.004721
1888.8284,0.004940
1889.7603,0.005192
1890.6921,0.004895
1891.6240,0.003618
1892.5558,0.004312
1893.4876,0.005519
1894.4195,0.004801
1895.3513,0.004784
1896.2831,0.005295
1897.2150,0.005286
1898.1468,0.005532
1899.0786,0.005476
1900.0105,0.005070
1900.9423,0.004575
1901.8741,0.004881
1902.8060,0.005686
1903.7378,0.006068
1904.6696,0.006482
1905.6015,0.006366
1906.5333,0.005247
1907.4651,0.005298
1908.3970,0.006012
1909.3288,0.005551
1910.2606,0.005134
1911.1925,0.006243
1912.1243,0.007774
1913.0561,0.008100
1913.9880,0.006732
1914.9198,0.006389
1915.8516,0.007680
1916.7835,0.008143
1917.7153,0.007180
1918.6472,0.005638
1919.5790,0.004760
1920.5108,0.006354
1921.4427,0.007422
1922.3745,0.007289
1923.3063,0.008067
1924.2382,0.007465
1925.1700,0.005889
1926.1018,0.005695
1927.0337,0.005456
1927.9655,0.005708
1928.8973,0.005840
1929.8292,0.005522
1930.7610,0.005029
1931.6928,0.003389
1932.6247,0.003196
1933.5565,0.004791
1934.4883,0.005818
1935.4202,0.005872
1936.3520,0.005002
1937.2838,0.003681
1938.2157,0.002714
1939.1475,0.002867
1940.0793,0.002213
1941.0112,0.001710
1941.9430,0.003000
1942.8748,0.003727
1943.8067,0.002383
1944.7385,0.001782
1945.6704,0.003298
1946.6022,0.003795
1947.5340,0.003303
1948.4659,0.003367
1949.3977,0.002893
1950.3295,0.002170
1951.2614,0.002350
1952.1932,0.003072
1953.1250,0.004184
1954.0569,0.003329
1954.9887,0.001269
1955.9205,0.000691
1956.8524,-0.000196
1957.7842,0.000310
1958.7160,0.001334
1959.6479,0.001494
1960.5797,0.000882
1961.5115,0.000716
1962.4434,0.002173
1963.3752,0.003470
1964.3070,0.004151
1965.2389,0.003676
1966.1707,0.001251
1967.1025,0.000701
1968.0344,0.003404
1968.9662,0.002967
1969.8980,0.000831
1970.8299,-0.000991
1971.7617,-0.001572
1972.6936,0.001460
1973.6254,0.001362
1974.5572,-0.000379
1975.4891,-0.001016
1976.4209,-0.001239
1977.3527,-0.000662
1978.2846,-0.000449
1979.2164,-0.002232
1980.1482,-0.002146
1981.0801,-0.001326
1982.0119,0.000110
1982.9437,0.000860
1983.8756,-0.000111
1984.8074,-0.000413
1985.7392,0.001913
1986.6711,0.004593
1987.6029,0.002940
1988.5347,0.000445
1989.4666,0.001104
1990.3984,-0.000139
1991.3302,0.000481
1992.2621,0.001835
1993.1939,0.000970
1994.1257,0.002014
1995.0576,0.003464
1995.9894,0.004003
1996.9212,0.003845
1997.8531,0.001706
1998.7849,0.001761
1999.7167,0.000975
2000.6486,-0.000529
2001.5804,-0.000802
2002.5123,-0.000222
2003.4441,0.001467
2004.3759,0.002193
2005.3078,0.001475
2006.2396,0.000079
2007.1714,0.001091
2008.1033,0.004579
2009.0351,0.003553
2009.9669,0.000761
2010.8988,0.000546
2011.8306,0.000189
2012.7624,0.000335
2013.6943,0.001705
2014.6261,-0.000167
2015.5579,-0.001463
2016.4898,-0.000038
2017.4216,0.000189
2018.3534,0.000811
2019.2853,-0.001150
2020.2171,-0.001249
2021.1489,0.001068
2022.0808,0.002131
2023.0126,0.002869
2023.9444,0.003043
2024.8763,0.000682
2025.8081,-0.001677
2026.7399,0.000979
2027.6718,0.001134
2028.6036,-0.000114
2029.5355,0.000306
2030.4673,0.000136
2031.3991,-0.000394
2032.3310,-0.002632
2033.2628,-0.003770
2034.1946,-0.001294
2035.1265,0.001594
2036.0583,0.000746
2036.9901,-0.001457
2037.9220,-0.002926
2038.8538,-0.001569
2039.7856,0.000532
2040.7175,0.002046
2041.6493,0.001950
2042.5811,0.002046
2043.5130,0.003466
2044.4448,0.002278
2045.3766,0.001105
2046.3085,0.000195
2047.2403,0.001724
2048.1721,0.005439
2049.1040,0.005038
2050.0358,0.002203
2050.9676,0.002176
2051.8995,0.002479
2052.8313,0.003412
2053.7631,0.005816
2054.6950,0.005268
2055.6268,0.003840
2056.5587,0.003246
2057.4905,0.003943
2058.4223,0.005591
2059.3542,0.005765
2060.2860,0.006306
2061.2178,0.007508
2062.1497,0.006276
2063.0815,0.005608
2064.0133,0.006590
2064.9452,0.005898
2065.8770,0.004892
2066.8088,0.004826
2067.7407,0.004913
2068.6725,0.005271
2069.6043,0.005808
2070.5362,0.006486
2071.4680,0.007090
2072.3998,0.007735
2073.3317,0.007732
2074.2635,0.007201
2075.1953,0.007049
2076.1272,0.007795
2077.0590,0.007403
2077.9908,0.005805
2078.9227,0.005229
2079.8545,0.006281
2080.7863,0.007450
2081.7182,0.007774
2082.6500,0.006740
2083.5819,0.007695
2084.5137,0.008559
2085.4455,0.005757
2086.3774,0.004442
2087.3092,0.006375
2088.2410,0.007027
2089.1729,0.006949
2090.1047,0.007578
2091.0365,0.007444
2091.9684,0.006566
2092.9002,0.005647
2093.8320,0.006379
2094.7639,0.006861
2095.6957,0.006847
2096.6275,0.007952
2097.5594,0.009221
2098.4912,0.008248
2099.4230,0.007590
2100.3549,0.007545
2101.2867,0.007425
2102.2185,0.006926
2103.1504,0.005553
2104.0822,0.005361
2105.0140,0.005896
2105.9459,0.006373
2106.8777,0.006680
2107.8095,0.006751
2108.7414,0.006756
2109.6732,0.006632
2110.6051,0.007125
2111.5369,0.006936
2112.4687,0.006603
2113.4006,0.007102
2114.3324,0.007147
2115.2642,0.007257
2116.1961,0.008263
2117.1279,0.007969
2118.0597,0.006893
2118.9916,0.007434
2119.9234,0.008173
2120.8552,0.008224
2121.7871,0.007763
2122.7189,0.006751
2123.6507,0.006958
2124.5826,0.007648
2125.5144,0.007603
2126.4462,0.007652
2127.3781,0.008422
2128.3099,0.008419
2129.2417,0.007696
2130.1736,0.007385
2131.1054,0.006977
2132.0372,0.007880
2132.9691,0.008992
2133.9009,0.008895
2134.8327,0.008246
2135.7646,0.008839
2136.6964,0.008699
2137.6282,0.006178
2138.5601,0.004365
2139.4919,0.005620
2140.4238,0.005745
2141.3556,0.004552
2142.2874,0.004419
2143.2193,0.005734
2144.1511,0.005552
2145.0829,0.005222
2146.0148,0.006668
2146.9466,0.007025
2147.8784,0.006511
2148.8103,0.005963
2149.7421,0.006027
2150.6739,0.004727
2151.6058,0.003594
2152.5376,0.001908
2153.4694,0.001911
2154.4013,0.002953
2155.3331,0.002832
2156.2649,0.004106
2157.1968,0.002579
2158.1286,-0.002503
2159.0604,-0.001061
2159.9923,0.002928
2160.9241,0.003665
2161.8559,0.001582
2162.7878,-0.001892
2163.7196,-0.001004
2164.6514,-0.000831
2165.5833,-0.000931
2166.5151,0.000238
2167.4470,-0.000206
2168.3788,-0.001486
2169.3106,0.000887
2170.2425,0.002653
2171.1743,-0.000269
2172.1061,0.000675
2173.0380,0.001419
2173.9698,0.000773
2174.9016,0.000886
2175.8335,-0.000418
2176.7653,0.000437
2177.6971,0.000933
2178.6290,-0.000761
2179.5608,0.000309
2180.4926,0.000558
2181.4245,-0.000657
2182.3563,-0.001381
2183.2881,0.003016
2184.2200,0.005669
2185.1518,0.002852
2186.0836,0.001429
2187.0155,0.002832
2187.9473,0.004145
2188.8791,0.004919
2189.8110,0.004556
2190.7428,0.004577
2191.6746,0.003019
2192.6065,0.003317
2193.5383,0.003589
2194.4702,0.002601
2195.4020,0.002104
2196.3338,0.002786
2197.2657,0.004706
2198.1975,0.003583
2199.1293,0.001211
2200.0612,0.000925
2200.9930,0.003962
2201.9248,0.005173
2202.8567,0.002457
2203.7885,0.002155
2204.7203,0.002905
2205.6522,0.003789
2206.5840,0.004149
2207.5158,0.004387
2208.4477,0.002753
2209.3795,0.002929
2210.3113,0.005435
2211.2432,0.006120
2212.1750,0.005653
2213.1068,0.003845
2214.0387,0.004445
2214.9705,0.006601
2215.9023,0.004661
2216.8342,0.002576
2217.7660,0.005010
2218.6978,0.005484
2219.6297,0.003747
2220.5615,0.003928
2221.4934,0.004179
2222.4252,0.002855
2223.3570,0.003186
2224.2889,0.005353
2225.2207,0.005849
2226.1525,0.005221
2227.0844,0.005637
2228.0162,0.006029
2228.9480,0.005455
2229.8799,0.004790
2230.8117,0.006745
2231.7435,0.006865
2232.6754,0.005340
2233.6072,0.006264
2234.5390,0.006025
2235.4709,0.005535
2236.4027,0.005415
2237.3345,0.005195
2238.2664,0.005519
2239.1982,0.006611
2240.1300,0.006348
2241.0619,0.006174
2241.9937,0.005951
2242.9255,0.005352
2243.8574,0.004546
2244.7892,0.005316
2245.7210,0.006224
2246.6529,0.006602
2247.5847,0.005154
2248.5166,0.003198
2249.4484,0.003593
2250.3802,0.004961
2251.3121,0.004008
2252.2439,0.003744
2253.1757,0.006117
2254.1076,0.008211
2255.0394,0.006293
2255.9712,0.003819
2256.9031,0.004484
2257.8349,0.006236
2258.7667,0.006532
2259.6986,0.005620
2260.6304,0.004984
2261.5622,0.005228
2262.4941,0.005915
2263.4259,0.005997
2264.3577,0.005442
2265.2896,0.006075
2266.2214,0.006145
2267.1532,0.004973
2268.0851,0.005245
2269.0169,0.006811
2269.9487,0.006869
2270.8806,0.006115
2271.8124,0.005930
2272.7442,0.004856
2273.6761,0.005580
2274.6079,0.006497
2275.5397,0.005111
2276.4716,0.004149
2277.4034,0.004632
2278.3353,0.005220
2279.2671,0.005613
2280.1989,0.005660
2281.1308,0.004950
2282.0626,0.005098
2282.9944,0.005536
2283.9263,0.004824
2284.8581,0.005029
2285.7899,0.006129
2286.7218,0.005766
2287.6536,0.005493
2288.5854,0.005979
2289.5173,0.006598
2290.4491,0.006891
2291.3809,0.006473
2292.3128,0.005696
2293.2446,0.005256
2294.1764,0.004806
2295.1083,0.005060
2296.0401,0.005295
2296.9719,0.005828
2297.9038,0.005997
2298.8356,0.005569
2299.7674,0.005289
2300.6993,0.005175
2301.6311,0.005093
2302.5629,0.005463
2303.4948,0.005780
2304.4266,0.005511
2305.3585,0.005563
2306.2903,0.005278
2307.2221,0.005020
2308.1540,0.005484
2309.0858,0.004925
2310.0176,0.004916
2310.9495,0.005724
2311.8813,0.005734
2312.8131,0.005556
2313.7450,0.005695
2314.6768,0.005623
2315.6086,0.005375
2316.5405,0.005514
2317.4723,0.005470
2318.4041,0.005192
2319.3360,0.004877
2320.2678,0.004048
2321.1996,0.005328
2322.1315,0.006888
2323.0633,0.006463
2323.9951,0.006189
2324.9270,0.006217
2325.8588,0.005832
2326.7906,0.005593
2327.7225,0.005427
2328.6543,0.005762
2329.5861,0.005540
2330.5180,0.005496
2331.4498,0.005971
2332.3817,0.005629
2333.3135,0.005296
2334.2453,0.004696
2335.1772,0.004563
2336.1090,0.005633
2337.0408,0.005699
2337.9727,0.005162
2338.9045,0.005150
2339.8363,0.005301
2340.7682,0.005130
2341.7000,0.005145
2342.6318,0.005598
2343.5637,0.005785
2344.4955,0.005146
2345.4273,0.004313
2346.3592,0.004342
2347.2910,0.004573
2348.2228,0.004674
2349.1547,0.004689
2350.0865,0.005163
2351.0183,0.005746
2351.9502,0.006156
2352.8820,0.005843
2353.8138,0.005157
2354.7457,0.005827
2355.6775,0.005955
2356.6093,0.005401
2357.5412,0.005230
2358.4730,0.005276
2359.4049,0.005499
2360.3367,0.005067
2361.2685,0.004210
2362.2004,0.004500
2363.1322,0.005063
2364.0640,0.004829
2364.9959,0.004413
2365.9277,0.003932
2366.8595,0.004303
2367.7914,0.004544
2368.7232,0.003728
2369.6550,0.003036
2370.5869,0.003489
2371.5187,0.004940
2372.4505,0.004963
2373.3824,0.004214
2374.3142,0.004279
2375.2460,0.004388
2376.1779,0.004424
2377.1097,0.004631
2378.0415,0.004780
2378.9734,0.004888
2379.9052,0.004829
2380.8370,0.004525
2381.7689,0.004310
2382.7007,0.004177
2383.6325,0.004418
2384.5644,0.004635
2385.4962,0.004926
2386.4281,0.004834
2387.3599,0.004530
2388.2917,0.004620
2389.2236,0.004735
2390.1554,0.004710
2391.0872,0.004956
2392.0191,0.005560
2392.9509,0.005858
2393.8827,0.005155
2394.8146,0.004779
2395.7464,0.004826
2396.6782,0.004562
2397.6101,0.005155
2398.5419,0.005398
2399.4737,0.005161
2400.4056,0.004427
2401.3374,0.004082
2402.2692,0.003960
2403.2011,0.004687
2404.1329,0.005369
2405.0647,0.004869
2405.9966,0.004440
2406.9284,0.004550
2407.8602,0.005152
2408.7921,0.005056
2409.7239,0.004619
2410.6557,0.004209
2411.5876,0.004520
2412.5194,0.005681
2413.4512,0.005912
2414.3831,0.005292
2415.3149,0.004268
2416.2468,0.004252
2417.1786,0.004460
2418.1104,0.004386
2419.0423,0.004718
2419.9741,0.004685
2420.9059,0.004229
2421.8378,0.003512
2422.7696,0.003545
2423.7014,0.004057
2424.6333,0.004066
2425.5651,0.004491
2426.4969,0.004718
2427.4288,0.003965
2428.3606,0.003300
2429.2924,0.003286
2430.2243,0.003791
2431.1561,0.004259
2432.0879,0.004742
2433.0198,0.005001
2433.9516,0.004644
2434.8834,0.004292
2435.8153,0.004185
2436.7471,0.003165
2437.6789,0.003496
2438.6108,0.003954
2439.5426,0.003610
2440.4744,0.004599
2441.4063,0.005578
2442.3381,0.004331
2443.2700,0.003399
2444.2018,0.003449
2445.1336,0.003785
2446.0655,0.003962
2446.9973,0.003964
2447.9291,0.003349
2448.8610,0.003449
2449.7928,0.004334
2450.7246,0.004967
2451.6565,0.004378
2452.5883,0.003430
2453.5201,0.003635
2454.4520,0.003911
2455.3838,0.003861
2456.3156,0.003761
2457.2475,0.003934
2458.1793,0.004427
2459.1111,0.004290
2460.0430,0.003977
2460.9748,0.003815
2461.9066,0.003654
2462.8385,0.003942
2463.7703,0.004186
2464.7021,0.004074
2465.6340,0.004075
2466.5658,0.003986
2467.4976,0.004186
2468.4295,0.004458
2469.3613,0.004414
2470.2932,0.004653
2471.2250,0.004888
2472.1568,0.004269
2473.0887,0.004073
2474.0205,0.004031
2474.9523,0.003645
2475.8842,0.004271
2476.8160,0.004610
2477.7478,0.004477
2478.6797,0.004866
2479.6115,0.004952
2480.5433,0.005306
2481.4752,0.004983
2482.4070,0.003944
2483.3388,0.003531
2484.2707,0.004209
2485.2025,0.004370
2486.1343,0.004060
2487.0662,0.004418
2487.9980,0.005040
2488.9298,0.005140
2489.8617,0.004911
2490.7935,0.004827
2491.7253,0.004655
2492.6572,0.003395
2493.5890,0.003577
2494.5208,0.004443
2495.4527,0.004515
2496.3845,0.005075
2497.3164,0.005966
2498.2482,0.005902
2499.1800,0.005300
2500.1119,0.004999
2501.0437,0.005081
2501.9755,0.004861
2502.9074,0.004871
2503.8392,0.005087
2504.7710,0.005400
2505.7029,0.004685
2506.6347,0.003971
2507.5665,0.004448
2508.4984,0.004568
2509.4302,0.004570
2510.3620,0.005132
2511.2939,0.005142
2512.2257,0.004019
2513.1575,0.004051
2514.0894,0.005384
2515.0212,0.005947
2515.9530,0.006055
2516.8849,0.005215
2517.8167,0.004103
2518.7485,0.004740
2519.6804,0.004805
2520.6122,0.004072
2521.5440,0.003975
2522.4759,0.004195
2523.4077,0.005530
2524.3396,0.005841
2525.2714,0.005263
2526.2032,0.005305
2527.1351,0.005386
2528.0669,0.005271
2528.9987,0.005302
2529.9306,0.004857
2530.8624,0.004665
2531.7942,0.004522
2532.7261,0.004551
2533.6579,0.005160
2534.5897,0.006044
2535.5216,0.005841
2536.4534,0.004207
2537.3852,0.002997
2538.3171,0.004126
2539.2489,0.005271
2540.1807,0.005045
2541.1126,0.004257
2542.0444,0.004387
2542.9762,0.005008
2543.9081,0.005384
2544.8399,0.005504
2545.7717,0.005286
2546.7036,0.004231
2547.6354,0.003896
2548.5672,0.005229
2549.4991,0.005512
2550.4309,0.004409
2551.3627,0.004624
2552.2946,0.004784
2553.2264,0.004029
2554.1583,0.004430
2555.0901,0.004696
2556.0219,0.004232
2556.9538,0.004367
2557.8856,0.005088
2558.8174,0.005493
2559.7493,0.005198
2560.6811,0.004646
2561.6129,0.004048
2562.5448,0.004191
2563.4766,0.004961
2564.4084,0.004744
2565.3403,0.004242
2566.2721,0.003851
2567.2039,0.003295
2568.1358,0.003833
2569.0676,0.004734
2569.9994,0.005196
2570.9313,0.005477
2571.8631,0.004847
2572.7949,0.004380
2573.7268,0.004109
2574.6586,0.003725
2575.5904,0.004390
2576.5223,0.004713
2577.4541,0.003887
2578.3859,0.003501
2579.3178,0.003774
2580.2496,0.003948
2581.1815,0.004396
2582.1133,0.004594
2583.0451,0.004241
2583.9770,0.004385
2584.9088,0.004580
2585.8406,0.004626
2586.7725,0.004761
2587.7043,0.004610
2588.6361,0.004600
2589.5680,0.004994
2590.4998,0.004790
2591.4316,0.004480
2592.3635,0.004675
2593.2953,0.004570
2594.2271,0.005181
2595.1590,0.005941
2596.0908,0.005844
2597.0226,0.005217
2597.9545,0.004605
2598.8863,0.004310
2599.8181,0.004725
2600.7500,0.005293
2601.6818,0.005795
2602.6136,0.005716
2603.5455,0.005196
2604.4773,0.004612
2605.4091,0.004524
2606.3410,0.004930
2607.2728,0.005444
2608.2047,0.005623
2609.1365,0.005656
2610.0683,0.005644
2611.0002,0.005530
2611.9320,0.004973
2612.8638,0.004419
2613.7957,0.004780
2614.7275,0.004815
2615.6593,0.004624
2616.5912,0.004918
2617.5230,0.004778
2618.4548,0.004860
2619.3867,0.004885
2620.3185,0.004750
2621.2503,0.005428
2622.1822,0.005982
2623.1140,0.006022
2624.0458,0.006502
2624.9777,0.006536
2625.9095,0.006530
2626.8413,0.006716
2627.7732,0.006475
2628.7050,0.005944
2629.6368,0.005706
2630.5687,0.005940
2631.5005,0.006094
2632.4323,0.006183
2633.3642,0.006151
2634.2960,0.005680
2635.2279,0.005817
2636.1597,0.006041
2637.0915,0.005806
2638.0234,0.005629
2638.9552,0.005739
2639.8870,0.005970
2640.8189,0.006254
2641.7507,0.006082
2642.6825,0.006032
2643.6144,0.006234
2644.5462,0.005995
2645.4780,0.006173
2646.4099,0.006200
2647.3417,0.005968
2648.2735,0.006296
2649.2054,0.006709
2650.1372,0.006953
2651.0690,0.006817
2652.0009,0.006915
2652.9327,0.007175
2653.8645,0.007097
2654.7964,0.007091
2655.7282,0.007037
2656.6600,0.006751
2657.5919,0.006531
2658.5237,0.006571
2659.4555,0.006979
2660.3874,0.007058
2661.3192,0.007005
2662.2511,0.007133
2663.1829,0.007053
2664.1147,0.007137
2665.0466,0.007564
2665.9784,0.007515
2666.9102,0.007278
2667.8421,0.007204
2668.7739,0.007028
2669.7057,0.007100
2670.6376,0.007427
2671.5694,0.007646
2672.5012,0.007942
2673.4331,0.008218
2674.3649,0.008437
2675.2967,0.008219
2676.2286,0.007683
2677.1604,0.007615
2678.0922,0.007873
2679.0241,0.007809
2679.9559,0.008000
2680.8877,0.008267
2681.8196,0.008454
2682.7514,0.008720
2683.6832,0.008556
2684.6151,0.008460
2685.5469,0.008944
2686.4787,0.009102
2687.4106,0.008862
2688.3424,0.008842
2689.2742,0.009137
2690.2061,0.009461
2691.1379,0.009594
2692.0698,0.009649
2693.0016,0.009606
2693.9334,0.009520
2694.8653,0.009591
2695.7971,0.009626
2696.7289,0.009820
2697.6608,0.009987
2698.5926,0.010191
2699.5244,0.010379
2700.4563,0.010409
2701.3881,0.010355
2702.3199,0.010450
2703.2518,0.010652
2704.1836,0.010726
2705.1154,0.010982
2706.0473,0.010903
2706.9791,0.010271
2707.9109,0.010298
2708.8428,0.010675
2709.7746,0.010579
2710.7064,0.010610
2711.6383,0.010936
2712.5701,0.011254
2713.5019,0.011365
2714.4338,0.011622
2715.3656,0.012126
2716.2974,0.011712
2717.2293,0.011181
2718.1611,0.011329
2719.0930,0.011447
2720.0248,0.011828
2720.9566,0.012499
2721.8885,0.012565
2722.8203,0.012500
2723.7521,0.012462
2724.6840,0.012605
2725.6158,0.012790
2726.5476,0.012495
2727.4795,0.012518
2728.4113,0.013527
2729.3431,0.013656
2730.2750,0.012748
2731.2068,0.012623
2732.1386,0.013182
2733.0705,0.013447
2734.0023,0.013216
2734.9341,0.012932
2735.8660,0.013252
2736.7978,0.013937
2737.7296,0.014180
2738.6615,0.013894
2739.5933,0.013702
2740.5251,0.013933
2741.4570,0.013961
2742.3888,0.013825
2743.3206,0.013770
2744.2525,0.013719
2745.1843,0.013727
2746.1162,0.013620
2747.0480,0.014038
2747.9798,0.014554
2748.9117,0.014293
2749.8435,0.013982
2750.7753,0.014270
2751.7072,0.014718
2752.6390,0.014915
2753.5708,0.014759
2754.5027,0.014153
2755.4345,0.013569
2756.3663,0.013727
2757.2982,0.014241
2758.2300,0.014300
2759.1618,0.013873
2760.0937,0.014073
2761.0255,0.014702
2761.9573,0.014851
2762.8892,0.014781
2763.8210,0.014895
2764.7528,0.014867
2765.6847,0.014628
2766.6165,0.014441
2767.5483,0.014656
2768.4802,0.014809
2769.4120,0.014778
2770.3438,0.014740
2771.2757,0.014822
2772.2075,0.014861
2773.1394,0.015072
2774.0712,0.015520
2775.0030,0.015459
2775.9349,0.015051
2776.8667,0.015250
2777.7985,0.015524
2778.7304,0.015307
2779.6622,0.015622
2780.5940,0.015876
2781.5259,0.015469
2782.4577,0.015376
2783.3895,0.016141
2784.3214,0.016506
2785.2532,0.016293
2786.1850,0.016626
2787.1169,0.016775
2788.0487,0.016653
2788.9805,0.016756
2789.9124,0.016968
2790.8442,0.017063
2791.7760,0.017195
2792.7079,0.017746
2793.6397,0.018012
2794.5715,0.017789
2795.5034,0.017875
2796.4352,0.018003
2797.3670,0.018176
2798.2989,0.018731
2799.2307,0.019359
2800.1626,0.019638
2801.0944,0.019797
2802.0262,0.020129
2802.9581,0.020422
2803.8899,0.020713
2804.8217,0.020876
2805.7536,0.020461
2806.6854,0.020702
2807.6172,0.021506
2808.5491,0.021672
2809.4809,0.021693
2810.4127,0.022232
2811.3446,0.022645
2812.2764,0.022517
2813.2082,0.022527
2814.1401,0.023256
2815.0719,0.023991
2816.0037,0.024040
2816.9356,0.023616
2817.8674,0.023922
2818.7992,0.024610
2819.7311,0.024643
2820.6629,0.024500
2821.5947,0.024752
2822.5266,0.025235
2823.4584,0.025651
2824.3902,0.026002
2825.3221,0.026316
2826.2539,0.026695
2827.1857,0.026655
2828.1176,0.026148
2829.0494,0.026069
2829.9813,0.026787
2830.9131,0.027430
2831.8449,0.027786
2832.7768,0.027998
2833.7086,0.028490
2834.6404,0.029247
2835.5723,0.029703
2836.5041,0.030096
2837.4359,0.030447
2838.3678,0.030698
2839.2996,0.030994
2840.2314,0.031162
2841.1633,0.031175
2842.0951,0.031236
2843.0269,0.031609
2843.9588,0.032105
2844.8906,0.032570
2845.8224,0.033049
2846.7543,0.033443
2847.6861,0.033908
2848.6179,0.033880
2849.5498,0.034132
2850.4816,0.034669
2851.4134,0.035732
2852.3453,0.036832
2853.2771,0.036389
2854.2089,0.035947
2855.1408,0.036606
2856.0726,0.037523
2857.0045,0.038335
2857.9363,0.038998
2858.8681,0.039498
2859.8000,0.040492
2860.7318,0.041725
2861.6636,0.042915
2862.5955,0.043563
2863.5273,0.044454
2864.4591,0.045755
2865.3910,0.046569
2866.3228,0.046941
2867.2546,0.047559
2868.1865,0.048766
2869.1183,0.050056
2870.0501,0.051436
2870.9820,0.052696
2871.9138,0.053560
2872.8456,0.054938
2873.7775,0.056229
2874.7093,0.056796
2875.6411,0.057884
2876.5730,0.059179
2877.5048,0.060021
2878.4366,0.060621
2879.3685,0.061087
2880.3003,0.061856
2881.2321,0.062552
2882.1640,0.062980
2883.0958,0.063020
2884.0277,0.063174
2884.9595,0.063070
2885.8913,0.063240
2886.8232,0.064090
2887.7550,0.065595
2888.6868,0.066770
2889.6187,0.066788
2890.5505,0.065937
2891.4823,0.066040
2892.4142,0.067145
2893.3460,0.067324
2894.2778,0.067446
2895.2097,0.068378
2896.1415,0.068661
2897.0733,0.068589
2898.0052,0.068844
2898.9370,0.068826
2899.8688,0.068646
2900.8007,0.068681
2901.7325,0.068206
2902.6643,0.067917
2903.5962,0.067590
2904.5280,0.066857
2905.4598,0.065616
2906.3917,0.065162
2907.3235,0.064928
2908.2553,0.063833
2909.1872,0.062511
2910.1190,0.061807
2911.0509,0.061045
2911.9827,0.060313
2912.9145,0.059227
2913.8464,0.058949
2914.7782,0.058343
2915.7100,0.057714
2916.6419,0.058081
2917.5737,0.058170
2918.5055,0.057997
2919.4374,0.057714
2920.3692,0.058222
2921.3010,0.058447
2922.2329,0.057618
2923.1647,0.057932
2924.0965,0.058999
2925.0284,0.059530
2925.9602,0.059684
2926.8920,0.059946
2927.8239,0.060527
2928.7557,0.060867
2929.6875,0.061457
2930.6194,0.061965
2931.5512,0.061936
2932.4830,0.061437
2933.4149,0.061251
2934.3467,0.061398
2935.2785,0.061221
2936.2104,0.060588
2937.1422,0.060109
2938.0741,0.059377
2939.0059,0.059453
2939.9377,0.059793
2940.8696,0.059493
2941.8014,0.059244
2942.7332,0.058886
2943.6651,0.058175
2944.5969,0.057764
2945.5287,0.057420
2946.4606,0.056872
2947.3924,0.056337
2948.3242,0.055518
2949.2561,0.055152
2950.1879,0.055654
2951.1197,0.056200
2952.0516,0.056398
2952.9834,0.056640
2953.9152,0.056797
2954.8471,0.057301
2955.7789,0.058372
2956.7107,0.059517
2957.6426,0.060076
2958.5744,0.061095
2959.5062,0.062401
2960.4381,0.064272
2961.3699,0.066285
2962.3017,0.069147
2963.2336,0.071723
2964.1654,0.074061
2965.0972,0.077466
2966.0291,0.081492
2966.9609,0.085300
2967.8928,0.089815
2968.8246,0.094113
2969.7564,0.098307
2970.6883,0.102587
2971.6201,0.107952
2972.5519,0.113003
2973.4838,0.116626
2974.4156,0.120196
2975.3474,0.122932
2976.2793,0.124141
2977.2111,0.124804
2978.1429,0.124627
2979.0748,0.122763
2980.0066,0.120055
2980.9384,0.116590
2981.8703,0.112516
2982.8021,0.108920
2983.7339,0.103527
2984.6658,0.098182
2985.5976,0.094325
2986.5294,0.089907
2987.4613,0.084536
2988.3931,0.079397
2989.3249,0.074868
2990.2568,0.071268
2991.1886,0.067849
2992.1204,0.064163
2993.0523,0.060848
2993.9841,0.058350
2994.9160,0.056120
2995.8478,0.054337
2996.7796,0.052507
2997.7115,0.050919
2998.6433,0.049734
2999.5751,0.048403
3000.5070,0.047175
3001.4388,0.046446
3002.3706,0.045162
3003.3025,0.044034
3004.2343,0.044218
3005.1661,0.044260
3006.0980,0.043277
3007.0298,0.042673
3007.9616,0.042796
3008.8935,0.042581
3009.8253,0.042017
3010.7571,0.042395
3011.6890,0.042844
3012.6208,0.043047
3013.5526,0.042597
3014.4845,0.041956
3015.4163,0.041802
3016.3481,0.042245
3017.2800,0.042974
3018.2118,0.042283
3019.1436,0.041703
3020.0755,0.041865
3021.0073,0.041505
3021.9392,0.041682
3022.8710,0.042407
3023.8028,0.042417
3024.7347,0.041791
3025.6665,0.042222
3026.5983,0.043178
3027.5302,0.043652
3028.4620,0.043329
3029.3938,0.043341
3030.3257,0.044359
3031.2575,0.044950
3032.1893,0.044984
3033.1212,0.045176
3034.0530,0.045134
3034.9848,0.045552
3035.9167,0.046454
3036.8485,0.046568
3037.7803,0.046491
3038.7122,0.046894
3039.6440,0.047161
3040.5758,0.047597
3041.5077,0.047702
3042.4395,0.047951
3043.3713,0.048299
3044.3032,0.048735
3045.2350,0.048817
3046.1668,0.049095
3047.0987,0.049857
3048.0305,0.049818
3048.9624,0.049862
3049.8942,0.050312
3050.8260,0.051439
3051.7579,0.051792
3052.6897,0.052204
3053.6215,0.053448
3054.5534,0.053358
3055.4852,0.052436
3056.4170,0.052500
3057.3489,0.053724
3058.2807,0.054244
3059.2125,0.054383
3060.1444,0.054993
3061.0762,0.056138
3062.0080,0.056164
3062.9399,0.055789
3063.8717,0.056216
3064.8035,0.057264
3065.7354,0.058188
3066.6672,0.059216
3067.5990,0.059008
3068.5309,0.059810
3069.4627,0.061026
3070.3945,0.060842
3071.3264,0.060300
3072.2582,0.060149
3073.1900,0.061071
3074.1219,0.063100
3075.0537,0.063366
3075.9856,0.062963
3076.9174,0.064072
3077.8492,0.064800
3078.7811,0.065083
3079.7129,0.066163
3080.6447,0.066179
3081.5766,0.066198
3082.5084,0.066274
3083.4402,0.067309
3084.3721,0.069029
3085.3039,0.069872
3086.2357,0.069639
3087.1676,0.069610
3088.0994,0.069910
3089.0312,0.071172
3089.9631,0.072544
3090.8949,0.072514
3091.8267,0.072760
3092.7586,0.073730
3093.6904,0.074265
3094.6222,0.075049
3095.5541,0.076396
3096.4859,0.077123
3097.4177,0.077840
3098.3496,0.078202
3099.2814,0.078570
3100.2132,0.080080
3101.1451,0.079849
3102.0769,0.079604
3103.0087,0.080724
3103.9406,0.081654
3104.8724,0.081793
3105.8043,0.082814
3106.7361,0.083735
3107.6679,0.084839
3108.5998,0.085825
3109.5316,0.086700
3110.4634,0.087448
3111.3953,0.087846
3112.3271,0.088656
3113.2589,0.089566
3114.1908,0.089678
3115.1226,0.089747
3116.0544,0.090629
3116.9863,0.091247
3117.9181,0.092732
3118.8499,0.093253
3119.7818,0.094234
3120.7136,0.096051
3121.6454,0.095341
3122.5773,0.094785
3123.5091,0.095334
3124.4409,0.097275
3125.3728,0.098348
3126.3046,0.098779
3127.2364,0.099930
3128.1683,0.100952
3129.1001,0.101593
3130.0319,0.102865
3130.9638,0.104488
3131.8956,0.105435
3132.8275,0.105558
3133.7593,0.106160
3134.6911,0.106345
3135.6230,0.107088
3136.5548,0.108380
3137.4866,0.110205
3138.4185,0.111274
3139.3503,0.111896
3140.2821,0.112774
3141.2140,0.113271
3142.1458,0.113583
3143.0776,0.114619
3144.0095,0.115243
3144.9413,0.116101
3145.8731,0.116829
3146.8050,0.117995
3147.7368,0.118849
3148.6686,0.119928
3149.6005,0.120416
3150.5323,0.121645
3151.4641,0.122580
3152.3960,0.123861
3153.3278,0.125374
3154.2596,0.126496
3155.1915,0.127093
3156.1233,0.127403
3157.0551,0.126422
3157.9870,0.127500
3158.9188,0.128523
3159.8507,0.130682
3160.7825,0.133045
3161.7143,0.134419
3162.6462,0.134871
3163.5780,0.135308
3164.5098,0.134977
3165.4417,0.136200
3166.3735,0.137524
3167.3053,0.139049
3168.2372,0.139962
3169.1690,0.140547
3170.1008,0.141466
3171.0327,0.142778
3171.9645,0.143493
3172.8963,0.144953
3173.8282,0.145661
3174.7600,0.146721
3175.6918,0.147298
3176.6237,0.149275
3177.5555,0.150562
3178.4873,0.150427
3179.4192,0.149511
3180.3510,0.151094
3181.2828,0.152990
3182.2147,0.153817
3183.1465,0.155389
3184.0783,0.156180
3185.0102,0.156073
3185.9420,0.157277
3186.8739,0.158254
3187.8057,0.158597
3188.7375,0.158960
3189.6694,0.160118
3190.6012,0.161356
3191.5330,0.163486
3192.4649,0.164371
3193.3967,0.164692
3194.3285,0.165971
3195.2604,0.168047
3196.1922,0.168919
3197.1240,0.169291
3198.0559,0.169559
3198.9877,0.170358
3199.9195,0.170131
3200.8514,0.170626
3201.7832,0.171770
3202.7150,0.172185
3203.6469,0.173806
3204.5787,0.175264
3205.5105,0.175997
3206.4424,0.177798
3207.3742,0.178473
3208.3060,0.180079
3209.2379,0.180806
3210.1697,0.180162
3211.1015,0.179236
3212.0334,0.180970
3212.9652,0.183076
3213.8971,0.183277
3214.8289,0.182887
3215.7607,0.185459
3216.6926,0.188135
3217.6244,0.188027
3218.5562,0.187997
3219.4881,0.190341
3220.4199,0.190879
3221.3517,0.189472
3222.2836,0.188826
3223.2154,0.190841
3224.1472,0.192246
3225.0791,0.192731
3226.0109,0.192239
3226.9427,0.192266
3227.8746,0.192455
3228.8064,0.192810
3229.7382,0.193557
3230.6701,0.195623
3231.6019,0.195693
3232.5337,0.196239
3233.4656,0.198215
3234.3974,0.199249
3235.3292,0.198630
3236.2611,0.199303
3237.1929,0.199637
3238.1247,0.200303
3239.0566,0.201068
3239.9884,0.200701
3240.9202,0.199680
3241.8521,0.201074
3242.7839,0.202649
3243.7158,0.202414
3244.6476,0.202367
3245.5794,0.203605
3246.5113,0.204454
3247.4431,0.204005
3248.3749,0.202941
3249.3068,0.205245
3250.2386,0.206340
3251.1704,0.206132
3252.1023,0.206027
3253.0341,0.206000
3253.9659,0.205830
3254.8978,0.206357
3255.8296,0.206478
3256.7614,0.207681
3257.6933,0.208078
3258.6251,0.209465
3259.5569,0.210022
3260.4888,0.208217
3261.4206,0.207899
3262.3524,0.208450
3263.2843,0.209116
3264.2161,0.211722
3265.1479,0.211505
3266.0798,0.211186
3267.0116,0.211768
3267.9434,0.211170
3268.8753,0.210090
3269.8071,0.209223
3270.7390,0.209208
3271.6708,0.211354
3272.6026,0.211367
3273.5345,0.212797
3274.4663,0.214067
3275.3981,0.213451
3276.3300,0.213306
3277.2618,0.214377
3278.1936,0.213635
3279.1255,0.214182
3280.0573,0.214548
3280.9891,0.213949
3281.9210,0.214784
3282.8528,0.215681
3283.7846,0.215161
3284.7165,0.214700
3285.6483,0.214788
3286.5801,0.215021
3287.5120,0.214545
3288.4438,0.215587
3289.3756,0.216050
3290.3075,0.215074
3291.2393,0.214589
3292.1711,0.216216
3293.1030,0.216666
3294.0348,0.216870
3294.9666,0.216880
3295.8985,0.216926
3296.8303,0.215949
3297.7622,0.215996
3298.6940,0.216757
3299.6258,0.217060
3300.5577,0.216359
3301.4895,0.216860
3302.4213,0.216729
3303.3532,0.216596
3304.2850,0.216591
3305.2168,0.216828
3306.1487,0.217213
3307.0805,0.217867
3308.0123,0.217349
3308.9442,0.217862
3309.8760,0.217098
3310.8078,0.217347
3311.7397,0.217678
3312.6715,0.217966
3313.6033,0.219420
3314.5352,0.220197
3315.4670,0.218264
3316.3988,0.217720
3317.3307,0.218054
3318.2625,0.217781
3319.1943,0.216980
3320.1262,0.217238
3321.0580,0.218892
3321.9898,0.220519
3322.9217,0.221152
3323.8535,0.221201
3324.7854,0.220096
3325.7172,0.220021
3326.6490,0.220028
3327.5809,0.221027
3328.5127,0.221027
3329.4445,0.220008
3330.3764,0.219047
3331.3082,0.219580
3332.2400,0.218568
3333.1719,0.217623
3334.1037,0.218587
3335.0355,0.221023
3335.9674,0.221991
3336.8992,0.220922
3337.8310,0.219144
3338.7629,0.220869
3339.6947,0.222096
3340.6265,0.220877
3341.5584,0.219343
3342.4902,0.219471
3343.4220,0.221467
3344.3539,0.223558
3345.2857,0.224007
3346.2175,0.222984
3347.1494,0.222111
3348.0812,0.223148
3349.0130,0.222726
3349.9449,0.222709
3350.8767,0.223443
3351.8086,0.223079
3352.7404,0.221287
3353.6722,0.221291
3354.6041,0.222517
3355.5359,0.221886
3356.4677,0.219114
3357.3996,0.219890
3358.3314,0.222016
3359.2632,0.221775
3360.1951,0.221594
3361.1269,0.220668
3362.0587,0.218840
3362.9906,0.220794
3363.9224,0.223284
3364.8542,0.224250
3365.7861,0.223039
3366.7179,0.221289
3367.6497,0.220976
3368.5816,0.222602
3369.5134,0.222097
3370.4452,0.219471
3371.3771,0.217276
3372.3089,0.218702
3373.2407,0.218133
3374.1726,0.217092
3375.1044,0.217717
3376.0362,0.219013
3376.9681,0.219159
3377.8999,0.217639
3378.8317,0.217433
3379.7636,0.220782
3380.6954,0.221939
3381.6273,0.218929
3382.5591,0.217190
3383.4909,0.218232
3384.4228,0.217794
3385.3546,0.218070
3386.2864,0.215247
3387.2183,0.211469
3388.1501,0.213405
3389.0819,0.215792
3390.0138,0.213907
3390.9456,0.212255
3391.8774,0.212827
3392.8093,0.213739
3393.7411,0.212649
3394.6729,0.211123
3395.6048,0.210484
3396.5366,0.211165
3397.4684,0.210526
3398.4003,0.209556
3399.3321,0.208526
3400.2639,0.206956
3401.1958,0.205479
3402.1276,0.204531
3403.0594,0.204596
3403.9913,0.206034
3404.9231,0.206108
3405.8549,0.205681
3406.7868,0.204560
3407.7186,0.202667
3408.6505,0.201742
3409.5823,0.201686
3410.5141,0.202158
3411.4460,0.202031
3412.3778,0.200241
3413.3096,0.199595
3414.2415,0.200043
3415.1733,0.200757
3416.1051,0.199736
3417.0370,0.197535
3417.9688,0.195844
3418.9006,0.195970
3419.8325,0.196666
3420.7643,0.196590
3421.6961,0.194484
3422.6280,0.193434
3423.5598,0.194555
3424.4916,0.192707
3425.4235,0.190123
3426.3553,0.190849
3427.2871,0.190841
3428.2190,0.190538
3429.1508,0.189616
3430.0826,0.188281
3431.0145,0.187477
3431.9463,0.185463
3432.8781,0.183048
3433.8100,0.182175
3434.7418,0.182695
3435.6737,0.185116
3436.6055,0.185544
3437.5373,0.183329
3438.4692,0.181104
3439.4010,0.178525
3440.3328,0.174238
3441.2647,0.173500
3442.1965,0.175654
3443.1283,0.176751
3444.0602,0.176120
3444.9920,0.174280
3445.9238,0.174736
3446.8557,0.174876
3447.7875,0.172208
3448.7193,0.171757
3449.6512,0.171631
3450.5830,0.169531
3451.5148,0.168133
3452.4467,0.169065
3453.3785,0.169456
3454.3103,0.167585
3455.2422,0.166677
3456.1740,0.167163
3457.1058,0.164730
3458.0377,0.162229
3458.9695,0.162836
3459.9013,0.164121
3460.8332,0.163743
3461.7650,0.162468
3462.6969,0.160269
3463.6287,0.157537
3464.5605,0.154495
3465.4924,0.153752
3466.4242,0.155814
3467.3560,0.156024
3468.2879,0.154345
3469.2197,0.154205
3470.1515,0.155260
3471.0834,0.155090
3472.0152,0.151681
3472.9470,0.149527
3473.8789,0.149561
3474.8107,0.147827
3475.7425,0.145334
3476.6744,0.144647
3477.6062,0.145187
3478.5380,0.145405
3479.4699,0.146321
3480.4017,0.145237
3481.3335,0.140891
3482.2654,0.138704
3483.1972,0.139450
3484.1290,0.139628
3485.0609,0.138325
3485.9927,0.137183
3486.9245,0.136962
3487.8564,0.138634
3488.7882,0.138921
3489.7201,0.137697
3490.6519,0.136641
3491.5837,0.133395
3492.5156,0.132419
3493.4474,0.133539
3494.3792,0.131573
3495.3111,0.129254
3496.2429,0.128256
3497.1747,0.128683
3498.1066,0.129514
3499.0384,0.128131
3499.9702,0.126256
3500.9021,0.125058
3501.8339,0.123727
3502.7657,0.125201
3503.6976,0.126877
3504.6294,0.126140
3505.5612,0.124114
3506.4931,0.122885
3507.4249,0.124322
3508.3567,0.122186
3509.2886,0.118549
3510.2204,0.118627
3511.1522,0.117911
3512.0841,0.115644
3513.0159,0.114253
3513.9477,0.116236
3514.8796,0.116988
3515.8114,0.114655
3516.7432,0.111751
3517.6751,0.109517
3518.6069,0.111860
3519.5388,0.112975
3520.4706,0.110106
3521.4024,0.109241
3522.3343,0.108961
3523.2661,0.107892
3524.1979,0.105817
3525.1298,0.103710
3526.0616,0.104124
3526.9934,0.105635
3527.9253,0.104205
3528.8571,0.102453
3529.7889,0.103322
3530.7208,0.104403
3531.6526,0.102184
3532.5844,0.099515
3533.5163,0.098063
3534.4481,0.098092
3535.3799,0.099635
3536.3118,0.099303
3537.2436,0.097229
3538.1754,0.095776
3539.1073,0.093966
3540.0391,0.091755
3540.9709,0.091897
3541.9028,0.092627
3542.8346,0.091240
3543.7664,0.089642
3544.6983,0.089129
3545.6301,0.089868
3546.5620,0.091647
3547.4938,0.092376
3548.4256,0.090077
3549.3575,0.088220
3550.2893,0.085806
3551.2211,0.083596
3552.1530,0.084552
3553.0848,0.085758
3554.0166,0.084634
3554.9485,0.082022
3555.8803,0.080781
3556.8121,0.079618
3557.7440,0.077612
3558.6758,0.076650
3559.6076,0.077726
3560.5395,0.078753
3561.4713,0.077412
3562.4031,0.076717
3563.3350,0.076628
3564.2668,0.076223
3565.1986,0.075969
3566.1305,0.074255
3567.0623,0.072544
3567.9941,0.070691
3568.9260,0.069370
3569.8578,0.069352
3570.7896,0.069681
3571.7215,0.068142
3572.6533,0.067101
3573.5852,0.067816
3574.5170,0.067877
3575.4488,0.065800
3576.3807,0.064628
3577.3125,0.065243
3578.2443,0.063743
3579.1762,0.061950
3580.1080,0.062667
3581.0398,0.062061
3581.9717,0.060150
3582.9035,0.059491
3583.8353,0.059729
3584.7672,0.060398
3585.6990,0.059281
3586.6308,0.057494
3587.5627,0.056999
3588.4945,0.056151
3589.4263,0.055720
3590.3582,0.055391
3591.2900,0.055106
3592.2218,0.054679
3593.1537,0.053945
3594.0855,0.054424
3595.0173,0.052771
3595.9492,0.050675
3596.8810,0.050753
3597.8128,0.051137
3598.7447,0.050595
3599.6765,0.049605
3600.6084,0.048066
3601.5402,0.046200
3602.4720,0.046959
3603.4039,0.047704
3604.3357,0.045988
3605.2675,0.046263
3606.1994,0.046686
3607.1312,0.044771
3608.0630,0.043648
3608.9949,0.044038
3609.9267,0.044920
3610.8585,0.045589
3611.7904,0.044828
3612.7222,0.043809
3613.6540,0.043137
3614.5859,0.042423
3615.5177,0.041091
3616.4495,0.038560
3617.3814,0.038457
3618.3132,0.039382
3619.2450,0.038355
3620.1769,0.037909
3621.1087,0.036501
3622.0405,0.036252
3622.9724,0.036874
3623.9042,0.036163
3624.8360,0.035041
3625.7679,0.034817
3626.6997,0.035411
3627.6316,0.034222
3628.5634,0.033601
3629.4952,0.034737
3630.4271,0.035333
3631.3589,0.034446
3632.2907,0.032484
3633.2226,0.032430
3634.1544,0.033405
3635.0862,0.033013
3636.0181,0.031492
3636.9499,0.029824
3637.8817,0.029504
3638.8136,0.030250
3639.7454,0.029980
3640.6772,0.028680
3641.6091,0.027729
3642.5409,0.027279
3643.4727,0.026745
3644.4046,0.026844
3645.3364,0.027575
3646.2682,0.028342
3647.2001,0.026856
3648.1319,0.025222
3649.0637,0.025777
3649.9956,0.025459
3650.9274,0.023702
3651.8592,0.022254
3652.7911,0.021787
3653.7229,0.022130
3654.6547,0.021093
3655.5866,0.020069
3656.5184,0.021076
3657.4503,0.022006
3658.3821,0.021677
3659.3139,0.020256
3660.2458,0.019164
3661.1776,0.018959
3662.1094,0.019414
3663.0413,0.019590
3663.9731,0.019568
3664.9049,0.019180
3665.8368,0.018949
3666.7686,0.018785
3667.7004,0.017767
3668.6323,0.016989
3669.5641,0.016438
3670.4959,0.016146
3671.4278,0.014736
3672.3596,0.013513
3673.2914,0.014876
3674.2233,0.014947
3675.1551,0.014092
3676.0869,0.013135
3677.0188,0.012432
3677.9506,0.012358
3678.8824,0.012207
3679.8143,0.012228
3680.7461,0.011266
3681.6779,0.010923
3682.6098,0.010314
3683.5416,0.009934
3684.4735,0.009885
3685.4053,0.009655
3686.3371,0.008733
3687.2690,0.008702
3688.2008,0.009306
3689.1326,0.008672
3690.0645,0.008579
3690.9963,0.007871
3691.9281,0.005811
3692.8600,0.005096
3693.7918,0.005913
3694.7236,0.005023
3695.6555,0.004994
3696.5873,0.005816
3697.5191,0.005986
3698.4510,0.005695
3699.3828,0.005594
3700.3146,0.006054
3701.2465,0.005901
3702.1783,0.005833
3703.1101,0.005418
3704.0420,0.005465
3704.9738,0.004701
3705.9056,0.003710
3706.8375,0.004562
3707.7693,0.004603
3708.7011,0.003663
3709.6330,0.003484
3710.5648,0.004072
3711.4967,0.004539
3712.4285,0.003113
3713.3603,0.001650
3714.2922,0.002144
3715.2240,0.001904
3716.1558,0.001964
3717.0877,0.001603
3718.0195,0.001368
3718.9513,0.002022
3719.8832,0.001801
3720.8150,0.001306
3721.7468,0.001213
3722.6787,0.001868
3723.6105,0.003339
3724.5423,0.003913
3725.4742,0.003707
3726.4060,0.003756
3727.3378,0.002988
3728.2697,0.002113
3729.2015,0.001062
3730.1333,0.000440
3731.0652,0.001253
3731.9970,0.002615
3732.9288,0.002715
3733.8607,0.001694
3734.7925,0.000866
3735.7243,-0.000574
3736.6562,-0.001311
3737.5880,0.000071
3738.5199,0.001028
3739.4517,0.000352
3740.3835,-0.000512
3741.3154,-0.000285
3742.2472,0.001010
3743.1790,0.000508
3744.1109,-0.000555
3745.0427,0.001429
3745.9745,0.002768
3746.9064,0.002455
3747.8382,0.001080
3748.7700,0.001022
3749.7019,0.000483
3750.6337,-0.001219
3751.5655,-0.000398
3752.4974,0.001259
3753.4292,-0.000309
3754.3610,-0.001437
3755.2929,-0.000476
3756.2247,-0.001380
3757.1565,-0.001873
3758.0884,-0.000254
3759.0202,0.000528
3759.9520,0.000553
3760.8839,0.000338
3761.8157,0.000511
3762.7475,0.001181
3763.6794,0.001295
3764.6112,0.001448
3765.5431,0.002420
3766.4749,0.001118
3767.4067,-0.001102
3768.3386,-0.000629
3769.2704,0.000842
3770.2022,0.001381
3771.1341,0.000945
3772.0659,0.000825
3772.9977,0.001193
3773.9296,0.001839
3774.8614,0.001779
3775.7932,0.001364
3776.7251,0.000918
3777.6569,0.000257
3778.5887,0.000430
3779.5206,0.000478
3780.4524,0.000536
3781.3842,0.001349
3782.3161,0.001304
3783.2479,0.000474
3784.1797,0.000127
3785.1116,-0.000243
3786.0434,0.000083
3786.9752,0.001023
3787.9071,0.000981
3788.8389,0.000197
3789.7707,-0.000397
3790.7026,0.000234
3791.6344,0.001178
3792.5662,0.001386
3793.4981,0.001364
3794.4299,0.000884
3795.3618,0.001041
3796.2936,0.001478
3797.2254,0.001217
3798.1573,0.000894
3799.0891,0.000551
3800.0209,-0.000566
3800.9528,-0.000343
3801.8846,0.000133
3802.8164,-0.000775
3803.7483,-0.000783
3804.6801,-0.000605
3805.6119,-0.000022
3806.5438,0.000741
3807.4756,0.001316
3808.4074,0.001550
3809.3393,0.002100
3810.2711,0.001872
3811.2029,0.000254
3812.1348,0.001078
3813.0666,0.001406
3813.9984,0.000011
3814.9303,-0.000287
3815.8621,0.001259
3816.7939,0.001811
3817.7258,0.000545
3818.6576,0.000131
3819.5894,-0.000271
3820.5213,-0.001780
3821.4531,-0.002237
3822.3850,-0.001578
3823.3168,0.000529
3824.2486,0.000498
3825.1805,-0.001622
3826.1123,-0.001742
3827.0441,-0.000680
3827.9760,0.000217
3828.9078,-0.000518
3829.8396,-0.000565
3830.7715,0.000688
3831.7033,0.000595
3832.6351,0.000181
3833.5670,0.001014
3834.4988,0.000524
3835.4306,0.000498
3836.3625,0.000103
3837.2943,-0.000208
3838.2261,-0.000062
3839.1580,-0.000184
3840.0898,-0.000964
3841.0216,-0.001423
3841.9535,-0.000327
3842.8853,0.000143
3843.8171,-0.000171
3844.7490,-0.000781
3845.6808,-0.000259
3846.6126,0.000225
3847.5445,0.000879
3848.4763,0.001081
3849.4082,0.000847
3850.3400,0.001033
3851.2718,0.000695
3852.2037,0.000478
3853.1355,0.001364
3854.0673,0.001817
3854.9992,0.000974
3855.9310,-0.001355
3856.8628,-0.001881
3857.7947,-0.001355
3858.7265,-0.001641
3859.6583,-0.001329
3860.5902,-0.000664
3861.5220,0.000143
3862.4538,0.001238
3863.3857,0.001256
3864.3175,0.000656
3865.2493,0.000204
3866.1812,-0.000898
3867.1130,-0.001390
3868.0448,-0.000337
3868.9767,0.001208
3869.9085,0.000243
3870.8403,-0.000231
3871.7722,-0.000252
3872.7040,-0.001207
3873.6358,-0.001570
3874.5677,-0.000843
3875.4995,-0.000507
3876.4314,-0.000343
3877.3632,-0.000586
3878.2950,-0.000702
3879.2269,-0.000186
3880.1587,-0.000546
3881.0905,-0.001274
3882.0224,-0.000109
3882.9542,0.001092
3883.8860,0.000970
3884.8179,0.000762
3885.7497,0.000773
3886.6815,0.001191
3887.6134,0.001632
3888.5452,0.000786
3889.4770,0.000279
3890.4089,-0.000770
3891.3407,-0.000605
3892.2725,0.001062
3893.2044,0.000878
3894.1362,-0.000275
3895.0680,-0.000124
3895.9999,0.000484
3896.9317,0.000702
3897.8635,0.000849
3898.7954,0.001730
3899.7272,0.001722
3900.6590,0.000450
3901.5909,-0.000737
3902.5227,-0.001212
3903.4546,-0.001534
3904.3864,-0.000676
3905.3182,0.000355
3906.2501,-0.000382
3907.1819,-0.001021
3908.1137,-0.001076
3909.0456,-0.000045
3909.9774,0.000616
3910.9092,0.000138
3911.8411,0.000825
3912.7729,0.001100
3913.7047,0.001222
3914.6366,0.001053
3915.5684,0.000635
3916.5002,0.000982
3917.4321,0.001190
3918.3639,0.000498
3919.2957,-0.000382
3920.2276,-0.000243
3921.1594,0.000649
3922.0912,0.001864
3923.0231,0.002188
3923.9549,0.001371
3924.8867,0.000362
3925.8186,-0.000225
3926.7504,0.000203
3927.6822,0.000189
3928.6141,0.000276
3929.5459,0.000086
3930.4777,0.000016
3931.4096,-0.000153
3932.3414,-0.000238
3933.2733,-0.000218
3934.2051,0.000022
3935.1369,-0.000364
3936.0688,0.000696
3937.0006,0.001437
3937.9324,0.000366
3938.8643,-0.000254
3939.7961,0.000468
3940.7279,0.001515
3941.6598,0.000763
3942.5916,0.000514
3943.5234,0.000910
3944.4553,0.000777
3945.3871,0.000765
3946.3189,0.000880
3947.2508,0.000636
3948.1826,0.000229
3949.1144,0.000390
3950.0463,0.001442
3950.9781,0.001634
3951.9099,0.001490
3952.8418,0.001133
3953.7736,0.000516
3954.7054,0.000313
3955.6373,0.000013
3956.5691,-0.000207
3957.5009,0.000220
3958.4328,0.000688
3959.3646,0.000653
3960.2965,-0.000021
3961.2283,-0.000587
3962.1601,-0.000055
3963.0920,0.000722
3964.0238,0.001081
3964.9556,0.001119
3965.8875,0.001457
3966.8193,0.001779
3967.7511,0.001313
3968.6830,0.000596
3969.6148,0.000184
3970.5466,0.000063
3971.4785,0.000239
3972.4103,0.000836
3973.3421,0.001187
3974.2740,0.001068
3975.2058,0.000084
3976.1376,-0.000850
3977.0695,0.000176
3978.0013,0.000947
3978.9331,0.001104
3979.8650,0.000793
3980.7968,0.000528
3981.7286,0.000695
3982.6605,0.000797
3983.5923,0.000369
3984.5241,0.000447
3985.4560,0.000137
3986.3878,0.000407
3987.3197,0.001369
3988.2515,0.002021
3989.1833,0.001477
3990.1152,0.000630
3991.0470,0.000865
3991.9788,0.001320
3992.9107,0.001302
3993.8425,0.000913
3994.7743,0.000992
3995.7062,0.000595
3996.6380,-0.000682
3997.5698,-0.000075
3998.5017,0.001063
3999.4335,0.000081
4000.3653,-0.000282
